{"HITInfo": {"Status": ["Approved"], "AcceptTime": ["Tue Dec 05 23:14:34 PST 2017"], "HitId": ["3NSCTNUR2ZN204L1ISIJY2IRLI4A5T"], "SubmitTime": ["Tue Dec 05 23:51:50 PST 2017"], "AssignmentId": ["33FBRBDW6OZC3LZUQ7QE51EVTF68C8"], "WorkerId": ["CE15"], "Configs": {"sortAreaHeight": 828, "stagingAreaHeight": 165.6, "stimHeight": 69.72631578947369, "stimWidth": 108.77305263157896, "innerWidth": 1792, "sortAreaWidth": 716.8000000000001, "innerHeight": 920, "categoryBoxHeights": 662.4, "categoryBoxWidths": 358.40000000000003}, "HitTitle": ["Categorization study"]}, "Demographics": {"Gender": "Male", "Age": "30-49 years old", "Education": "some postgraduate work"}, "Data": [{"im7_reclassified": null, "im3_y": 5, "im3_x": 120.459, "im7_colored_x": null, "im7_colored_y": null, "im7_src": "ims/im7.png", "im4_reclassified": null, "im1_y": 84.7263, "im1_x": 365.198, "im1_region": "staging", "im3_region": "staging", "im5_region": "staging", "im3_colored_x": null, "im3_colored_y": null, "im7_y": 84.7263, "im7_x": 120.459, "im6_reclassified": null, "im5_src": "ims/im5.png", "im4_colored_src": null, "im4_colored_region": null, "im7_colored_reclassified": null, "any_reclassifications": null, "im0_colored_src": null, "im0_colored_y": null, "im0_colored_x": null, "im3_colored_reclassified": null, "num_ambiguous_placements": 0, "im1_reclassified": null, "im2_reclassified": null, "im0_region": "staging", "im2_region": "staging", "im2_x": 242.829, "im2_y": 5, "im5_y": 84.7263, "im5_x": 487.568, "im4_src": "ims/im4.png", "rt": null, "im0_x": 365.198, "im0_y": 5, "im5_colored_reclassified": null, "im6_colored_reclassified": null, "im6_x": 242.829, "im6_y": 84.7263, "im3_colored_src": null, "im0_colored_region": null, "im2_colored_reclassified": null, "im1_src": "ims/im1.png", "im4_colored_y": null, "im4_colored_x": null, "im2_colored_y": null, "im2_colored_x": null, "trial": "starting_config", "im5_colored_region": null, "im5_reclassified": null, "im4_x": 487.568, "im4_y": 5, "im6_colored_y": null, "im6_colored_x": null, "im0_colored_reclassified": null, "im2_src": "ims/im2.png", "im4_colored_reclassified": null, "im5_colored_src": null, "im2_colored_region": null, "im1_colored_reclassified": null, "im3_src": "ims/im3.png", "im7_colored_src": null, "im6_colored_region": null, "im5_colored_x": null, "im5_colored_y": null, "im1_colored_x": null, "reinforcement": null, "im1_colored_y": null, "im6_region": "staging", "im1_colored_src": null, "im0_src": "ims/im0.png", "example_true_category": null, "im7_colored_region": null, "im3_colored_region": null, "im2_colored_src": null, "total_reclassifications": null, "im3_reclassified": null, "im0_reclassified": null, "im7_region": "staging", "im6_colored_src": null, "im1_colored_region": null, "im6_src": "ims/im6.png", "im4_region": "staging"}, {"im7_reclassified": true, "im3_y": 313, "im3_x": 139, "im7_colored_x": null, "im7_colored_y": null, "im7_src": "ims/im7.png", "im4_reclassified": true, "im1_y": 221, "im1_x": 194, "im1_region": "pink", "im3_region": "pink", "im5_region": "pink", "im3_colored_x": null, "im3_colored_y": null, "im7_y": 262, "im7_x": 88, "im6_reclassified": true, "im5_src": "ims/im5.png", "im4_colored_src": null, "im4_colored_region": null, "im7_colored_reclassified": null, "any_reclassifications": true, "im0_colored_src": null, "im0_colored_y": null, "im0_colored_x": null, "im3_colored_reclassified": null, "num_ambiguous_placements": 0, "im1_reclassified": true, "im2_reclassified": true, "im0_region": "blue", "im2_region": "blue", "im2_x": 492, "im2_y": 316, "im5_y": 449, "im5_x": 194, "im4_src": "ims/im4.png", "rt": 18409, "im0_x": 487, "im0_y": 230, "im5_colored_reclassified": null, "im6_colored_reclassified": null, "im6_x": 359, "im6_y": 219, "im3_colored_src": null, "im0_colored_region": null, "im2_colored_reclassified": null, "im1_src": "ims/im1.png", "im4_colored_y": null, "im4_colored_x": null, "im2_colored_y": null, "im2_colored_x": null, "trial": "initial_classification", "im5_colored_region": null, "im5_reclassified": true, "im4_x": 470, "im4_y": 571, "im6_colored_y": null, "im6_colored_x": null, "im0_colored_reclassified": null, "im2_src": "ims/im2.png", "im4_colored_reclassified": null, "im5_colored_src": null, "im2_colored_region": null, "im1_colored_reclassified": null, "im3_src": "ims/im3.png", "im7_colored_src": null, "im6_colored_region": null, "im5_colored_x": null, "im5_colored_y": null, "im1_colored_x": null, "reinforcement": null, "im1_colored_y": null, "im6_region": "blue", "im1_colored_src": null, "im0_src": "ims/im0.png", "example_true_category": null, "im7_colored_region": null, "im3_colored_region": null, "im2_colored_src": null, "total_reclassifications": 8, "im3_reclassified": true, "im0_reclassified": true, "im7_region": "pink", "im6_colored_src": null, "im1_colored_region": null, "im6_src": "ims/im6.png", "im4_region": "blue"}, {"im7_reclassified": false, "im3_y": 313, "im3_x": 139, "im7_colored_x": null, "im7_colored_y": null, "im7_src": "ims/im7.png", "im4_reclassified": false, "im1_y": 221, "im1_x": 194, "im1_region": "pink", "im3_region": "pink", "im5_region": "pink", "im3_colored_x": null, "im3_colored_y": null, "im7_y": 262, "im7_x": 88, "im6_reclassified": false, "im5_src": "ims/im5.png", "im4_colored_src": null, "im4_colored_region": null, "im7_colored_reclassified": null, "any_reclassifications": false, "im0_colored_src": "ims/im0_colored.png", "im0_colored_y": 224, "im0_colored_x": 564, "im3_colored_reclassified": null, "num_ambiguous_placements": 0, "im1_reclassified": false, "im2_reclassified": false, "im0_region": null, "im2_region": "blue", "im2_x": 492, "im2_y": 316, "im5_y": 449, "im5_x": 194, "im4_src": "ims/im4.png", "rt": 20912, "im7_region": "pink", "im0_y": null, "im5_colored_reclassified": null, "im6_colored_reclassified": null, "im6_x": 359, "im6_y": 219, "im3_colored_src": null, "im0_colored_region": "blue", "im2_colored_reclassified": null, "im1_src": "ims/im1.png", "im4_colored_y": null, "im4_colored_x": null, "im2_colored_y": null, "im2_colored_x": null, "trial": 0, "im5_colored_region": null, "im5_reclassified": false, "im4_x": 470, "im4_y": 571, "im6_colored_y": null, "im6_colored_x": null, "im0_colored_reclassified": null, "im2_src": "ims/im2.png", "im4_colored_reclassified": null, "im5_colored_src": null, "im2_colored_region": null, "im1_colored_reclassified": null, "im3_src": "ims/im3.png", "im7_colored_src": null, "im6_colored_region": null, "im5_colored_x": null, "im5_colored_y": null, "im1_colored_x": null, "reinforcement": "positive", "im1_colored_y": null, "im6_region": "blue", "im1_colored_src": null, "im0_src": null, "example_true_category": "blue", "im7_colored_region": null, "im3_colored_region": null, "im2_colored_src": null, "total_reclassifications": 0, "im3_reclassified": false, "im0_reclassified": null, "im0_x": null, "im6_colored_src": null, "im1_colored_region": null, "im6_src": "ims/im6.png", "im4_region": "blue"}, {"im7_reclassified": false, "im3_y": 313, "im3_x": 139, "im7_colored_x": null, "im7_colored_y": null, "im7_src": "ims/im7.png", "im4_reclassified": false, "im1_y": null, "im1_x": null, "im1_region": null, "im3_region": "pink", "im5_region": "pink", "im3_colored_x": null, "im3_colored_y": null, "im7_y": 262, "im7_x": 88, "im6_reclassified": false, "im5_src": "ims/im5.png", "im4_colored_src": null, "im4_colored_region": null, "im7_colored_reclassified": null, "any_reclassifications": false, "im0_colored_src": "ims/im0_colored.png", "im0_colored_y": 224, "im0_colored_x": 564, "im3_colored_reclassified": null, "num_ambiguous_placements": 0, "im1_reclassified": null, "im2_reclassified": false, "im0_region": null, "im2_region": "blue", "im2_x": 492, "im2_y": 316, "im5_y": 449, "im5_x": 194, "im4_src": "ims/im4.png", "rt": 8259, "im7_region": "pink", "im0_y": null, "im5_colored_reclassified": null, "im6_colored_reclassified": null, "im6_x": 359, "im6_y": 219, "im3_colored_src": null, "im0_colored_region": "blue", "im2_colored_reclassified": null, "im1_src": null, "im4_colored_y": null, "im4_colored_x": null, "im2_colored_y": null, "im2_colored_x": null, "trial": 1, "im5_colored_region": null, "im5_reclassified": false, "im4_x": 470, "im4_y": 571, "im6_colored_y": null, "im6_colored_x": null, "im0_colored_reclassified": false, "im2_src": "ims/im2.png", "im4_colored_reclassified": null, "im5_colored_src": null, "im2_colored_region": null, "im1_colored_reclassified": null, "im3_src": "ims/im3.png", "im7_colored_src": null, "im6_colored_region": null, "im5_colored_x": null, "im5_colored_y": null, "im1_colored_x": 242, "reinforcement": "positive", "im1_colored_y": 213, "im6_region": "blue", "im1_colored_src": "ims/im1_colored.png", "im0_src": null, "example_true_category": "pink", "im7_colored_region": null, "im3_colored_region": null, "im2_colored_src": null, "total_reclassifications": 0, "im3_reclassified": false, "im0_reclassified": null, "im0_x": null, "im6_colored_src": null, "im1_colored_region": "pink", "im6_src": "ims/im6.png", "im4_region": "blue"}, {"im7_reclassified": false, "im3_y": 356, "im3_x": 207, "im7_colored_x": null, "im7_colored_y": null, "im7_src": "ims/im7.png", "im4_reclassified": false, "im1_y": null, "im1_x": null, "im1_region": null, "im3_region": "pink", "im5_region": "pink", "im3_colored_x": null, "im3_colored_y": null, "im7_y": 262, "im7_x": 88, "im6_reclassified": false, "im5_src": "ims/im5.png", "im4_colored_src": null, "im4_colored_region": null, "im7_colored_reclassified": null, "any_reclassifications": false, "im0_colored_src": "ims/im0_colored.png", "im0_colored_y": 224, "im0_colored_x": 564, "im3_colored_reclassified": null, "num_ambiguous_placements": 0, "im1_reclassified": null, "im2_reclassified": null, "im0_region": null, "im2_region": null, "im2_x": null, "im2_y": null, "im5_y": 449, "im5_x": 194, "im4_src": "ims/im4.png", "rt": 21989, "im7_region": "pink", "im0_y": null, "im5_colored_reclassified": null, "im6_colored_reclassified": null, "im6_x": 359, "im6_y": 219, "im3_colored_src": null, "im0_colored_region": "blue", "im2_colored_reclassified": null, "im1_src": null, "im4_colored_y": null, "im4_colored_x": null, "im2_colored_y": 442, "im2_colored_x": 55, "trial": 2, "im5_colored_region": null, "im5_reclassified": false, "im4_x": 470, "im4_y": 571, "im6_colored_y": null, "im6_colored_x": null, "im0_colored_reclassified": false, "im2_src": null, "im4_colored_reclassified": null, "im5_colored_src": null, "im2_colored_region": "pink", "im1_colored_reclassified": false, "im3_src": "ims/im3.png", "im7_colored_src": null, "im6_colored_region": null, "im5_colored_x": null, "im5_colored_y": null, "im1_colored_x": 242, "reinforcement": "negative", "im1_colored_y": 213, "im6_region": "blue", "im1_colored_src": "ims/im1_colored.png", "im0_src": null, "example_true_category": "pink", "im7_colored_region": null, "im3_colored_region": null, "im2_colored_src": "ims/im2_colored.png", "total_reclassifications": 0, "im3_reclassified": false, "im0_reclassified": null, "im0_x": null, "im6_colored_src": null, "im1_colored_region": "pink", "im6_src": "ims/im6.png", "im4_region": "blue"}, {"im7_reclassified": false, "im3_y": null, "im3_x": null, "im7_colored_x": null, "im7_colored_y": null, "im7_src": "ims/im7.png", "im4_reclassified": false, "im1_y": null, "im1_x": null, "im1_region": null, "im3_region": null, "im5_region": "pink", "im3_colored_x": 572, "im3_colored_y": 359, "im7_y": 262, "im7_x": 88, "im6_y": 354, "im5_src": "ims/im5.png", "im4_colored_src": null, "im4_colored_region": null, "im7_colored_reclassified": null, "any_reclassifications": false, "im0_colored_src": "ims/im0_colored.png", "im0_colored_y": 224, "im0_colored_x": 564, "im3_colored_reclassified": null, "num_ambiguous_placements": 0, "im1_reclassified": null, "im2_reclassified": null, "im0_region": null, "im2_region": null, "im2_x": null, "im2_y": null, "im5_y": 449, "im5_x": 194, "im4_src": "ims/im4.png", "rt": 21021, "im7_region": "pink", "im0_y": null, "im5_colored_reclassified": null, "im6_colored_reclassified": null, "im6_x": 396, "im6_reclassified": false, "im3_colored_src": "ims/im3_colored.png", "im0_colored_region": "blue", "im2_colored_reclassified": false, "im1_src": null, "im4_colored_y": null, "im4_colored_x": null, "im2_colored_y": 442, "im2_colored_x": 55, "trial": 3, "im5_colored_region": null, "im5_reclassified": false, "im4_x": 424, "im4_y": 435, "im6_colored_y": null, "im6_colored_x": null, "im0_colored_reclassified": false, "im2_src": null, "im4_colored_reclassified": null, "im5_colored_src": null, "im2_colored_region": "pink", "im1_colored_reclassified": false, "im3_src": null, "im7_colored_src": null, "im6_colored_region": null, "im5_colored_x": null, "im5_colored_y": null, "im1_colored_x": 242, "reinforcement": "negative", "im1_colored_y": 213, "im6_region": "blue", "im1_colored_src": "ims/im1_colored.png", "im0_src": null, "example_true_category": "blue", "im7_colored_region": null, "im3_colored_region": "blue", "im2_colored_src": "ims/im2_colored.png", "total_reclassifications": 0, "im3_reclassified": null, "im0_reclassified": null, "im0_x": null, "im6_colored_src": null, "im1_colored_region": "pink", "im6_src": "ims/im6.png", "im4_region": "blue"}, {"im7_reclassified": true, "im3_y": null, "im3_x": null, "im7_colored_x": null, "im7_colored_y": null, "im7_src": "ims/im7.png", "im4_reclassified": null, "im1_y": null, "im1_x": null, "im1_region": null, "im3_region": null, "im5_region": "pink", "im3_colored_x": 572, "im3_colored_y": 359, "im7_y": 515, "im7_x": 512, "im6_reclassified": false, "im4_y": null, "im4_colored_src": "ims/im4_colored.png", "im4_colored_region": "pink", "im7_colored_reclassified": null, "any_reclassifications": true, "im0_colored_src": "ims/im0_colored.png", "im0_colored_y": 224, "im0_colored_x": 564, "im3_colored_reclassified": false, "num_ambiguous_placements": 0, "im1_reclassified": null, "im2_reclassified": null, "im0_region": null, "im2_region": null, "im2_x": null, "im2_y": null, "im5_y": 449, "im5_x": 194, "im4_src": null, "rt": 10774, "im7_region": "blue", "im0_y": null, "im5_colored_reclassified": null, "im6_colored_reclassified": null, "im6_x": 396, "im6_y": 354, "im3_colored_src": "ims/im3_colored.png", "im0_colored_region": "blue", "im2_colored_reclassified": false, "im1_src": null, "im4_colored_y": 342, "im4_colored_x": 241, "im2_colored_y": 442, "im2_colored_x": 55, "trial": 4, "im5_colored_region": null, "im5_reclassified": false, "im4_x": null, "im5_src": "ims/im5.png", "im6_colored_y": null, "im6_colored_x": null, "im0_colored_reclassified": false, "im2_src": null, "im4_colored_reclassified": null, "im5_colored_src": null, "im2_colored_region": "pink", "im1_colored_reclassified": false, "im3_src": null, "im7_colored_src": null, "im6_colored_region": null, "im5_colored_x": null, "im5_colored_y": null, "im1_colored_x": 242, "reinforcement": "negative", "im1_colored_y": 213, "im6_region": "blue", "im1_colored_src": "ims/im1_colored.png", "im0_src": null, "example_true_category": "pink", "im7_colored_region": null, "im3_colored_region": "blue", "im2_colored_src": "ims/im2_colored.png", "total_reclassifications": 1, "im3_reclassified": null, "im0_reclassified": null, "im0_x": null, "im6_colored_src": null, "im1_colored_region": "pink", "im6_src": "ims/im6.png", "im4_region": null}, {"im7_reclassified": false, "im3_y": null, "im3_x": null, "im7_colored_x": null, "im7_colored_y": null, "im7_src": "ims/im7.png", "im4_reclassified": null, "im1_y": null, "im1_x": null, "im1_region": null, "im3_region": null, "im5_region": null, "im3_colored_x": 572, "im3_colored_y": 359, "im7_y": 515, "im7_x": 512, "im6_reclassified": false, "im5_src": null, "im4_colored_src": "ims/im4_colored.png", "im4_colored_region": "pink", "im7_colored_reclassified": null, "any_reclassifications": false, "im0_colored_src": "ims/im0_colored.png", "im0_colored_y": 224, "im0_colored_x": 564, "im3_colored_reclassified": false, "num_ambiguous_placements": 0, "im1_reclassified": null, "im2_reclassified": null, "im0_region": null, "im2_region": null, "im2_x": null, "im2_y": null, "im5_y": null, "im5_x": null, "im4_src": null, "rt": 7822, "im7_region": "blue", "im0_y": null, "im5_colored_reclassified": null, "im6_colored_reclassified": null, "im6_x": 396, "im6_y": 354, "im3_colored_src": "ims/im3_colored.png", "im0_colored_region": "blue", "im2_colored_reclassified": false, "im1_src": null, "im4_colored_y": 342, "im4_colored_x": 241, "im2_colored_y": 442, "im2_colored_x": 55, "trial": 5, "im5_colored_region": "pink", "im5_colored_src": "ims/im5_colored.png", "im4_x": null, "im4_y": null, "im6_colored_y": null, "im6_colored_x": null, "im0_colored_reclassified": false, "im2_src": null, "im4_colored_reclassified": false, "im5_reclassified": null, "im2_colored_region": "pink", "im1_colored_reclassified": false, "im3_src": null, "im7_colored_src": null, "im6_colored_region": null, "im5_colored_x": 177, "im5_colored_y": 485, "im1_colored_x": 242, "reinforcement": "positive", "im1_colored_y": 213, "im6_region": "blue", "im1_colored_src": "ims/im1_colored.png", "im0_src": null, "example_true_category": "pink", "im7_colored_region": null, "im3_colored_region": "blue", "im2_colored_src": "ims/im2_colored.png", "total_reclassifications": 0, "im3_reclassified": null, "im0_reclassified": null, "im0_x": null, "im6_colored_src": null, "im1_colored_region": "pink", "im6_src": "ims/im6.png", "im4_region": null}, {"im7_reclassified": false, "im3_y": null, "im3_x": null, "im7_colored_x": null, "im7_colored_y": null, "im7_src": "ims/im7.png", "im4_reclassified": null, "im1_y": null, "im1_x": null, "im1_region": null, "im3_region": null, "im5_region": null, "im3_colored_x": 572, "im3_colored_y": 359, "im7_y": 515, "im7_x": 512, "im6_reclassified": null, "im4_y": null, "im4_colored_src": "ims/im4_colored.png", "im4_colored_region": "pink", "im7_colored_reclassified": null, "any_reclassifications": false, "im0_colored_src": "ims/im0_colored.png", "im0_colored_y": 224, "im0_colored_x": 564, "im3_colored_reclassified": false, "num_ambiguous_placements": 0, "im1_reclassified": null, "im2_reclassified": null, "im0_region": null, "im2_region": null, "im2_x": null, "im2_y": null, "im5_y": null, "im5_x": null, "im4_src": null, "rt": 7056, "im7_region": "blue", "im0_y": null, "im5_colored_reclassified": false, "im6_colored_reclassified": null, "im6_x": null, "im6_y": null, "im3_colored_src": "ims/im3_colored.png", "im0_colored_region": "blue", "im2_colored_reclassified": false, "im1_src": null, "im4_colored_y": 342, "im4_colored_x": 241, "im2_colored_y": 442, "im2_colored_x": 55, "trial": 6, "im5_colored_region": "pink", "im5_reclassified": null, "im4_x": null, "im6_colored_src": "ims/im6_colored.png", "im6_colored_y": 368, "im6_colored_x": 433, "im0_colored_reclassified": false, "im2_src": null, "im4_colored_reclassified": false, "im5_colored_src": "ims/im5_colored.png", "im2_colored_region": "pink", "im1_colored_reclassified": false, "im3_src": null, "im7_colored_src": null, "im6_colored_region": "blue", "im5_colored_x": 177, "im5_colored_y": 485, "im1_colored_x": 242, "reinforcement": "positive", "im1_colored_y": 213, "im6_region": null, "im1_colored_src": "ims/im1_colored.png", "im0_src": null, "example_true_category": "blue", "im7_colored_region": null, "im3_colored_region": "blue", "im5_src": null, "im2_colored_src": "ims/im2_colored.png", "total_reclassifications": 0, "im3_reclassified": null, "im0_reclassified": null, "im0_x": null, "im1_colored_region": "pink", "im6_src": null, "im4_region": null}, {"im7_reclassified": null, "im3_y": null, "im3_x": null, "im7_colored_x": 538, "im7_colored_y": 555, "im7_src": null, "im4_reclassified": null, "im1_y": null, "im1_x": null, "im1_region": null, "im3_region": null, "im5_region": null, "im3_colored_x": 572, "im3_colored_y": 359, "im7_y": null, "im7_x": null, "im6_reclassified": null, "im4_y": null, "im4_colored_src": "ims/im4_colored.png", "im4_colored_region": "pink", "im7_colored_reclassified": null, "any_reclassifications": false, "im0_colored_src": "ims/im0_colored.png", "im0_colored_y": 224, "im0_colored_x": 564, "im3_colored_reclassified": false, "num_ambiguous_placements": 0, "im1_reclassified": null, "im2_reclassified": null, "im0_region": null, "im2_region": null, "im2_x": null, "im2_y": null, "im5_y": null, "im5_x": null, "im4_src": null, "rt": 5911, "im7_region": null, "im0_y": null, "im5_colored_reclassified": false, "im6_colored_reclassified": false, "im6_x": null, "im6_y": null, "im3_colored_src": "ims/im3_colored.png", "im0_colored_region": "blue", "im2_colored_reclassified": false, "im1_src": null, "im4_colored_y": 342, "im4_colored_x": 241, "im2_colored_y": 442, "im2_colored_x": 55, "trial": 7, "im5_colored_region": "pink", "im5_reclassified": null, "im4_x": null, "im6_colored_src": "ims/im6_colored.png", "im6_colored_y": 368, "im6_colored_x": 433, "im0_colored_reclassified": false, "im2_src": null, "im4_colored_reclassified": false, "im5_colored_src": "ims/im5_colored.png", "im2_colored_region": "pink", "im1_colored_reclassified": false, "im3_src": null, "im7_colored_src": "ims/im7_colored.png", "im6_colored_region": "blue", "im5_colored_x": 177, "im5_colored_y": 485, "im1_colored_x": 242, "reinforcement": "positive", "im1_colored_y": 213, "im6_region": null, "im1_colored_src": "ims/im1_colored.png", "im0_src": null, "example_true_category": "blue", "im7_colored_region": "blue", "im3_colored_region": "blue", "im5_src": null, "im2_colored_src": "ims/im2_colored.png", "total_reclassifications": 0, "im3_reclassified": null, "im0_reclassified": null, "im0_x": null, "im1_colored_region": "pink", "im6_src": null, "im4_region": null}], "ProblemReport": {"rt": 2791, "trial_type": "survey-text", "responses": {"Q0": ""}, "internal_node_id": "0.0-3.0", "time_elapsed": 169317, "trial_index": 3}}