{"HITInfo": {"Status": ["Approved"], "AcceptTime": ["Tue Dec 05 21:41:32 PST 2017"], "HitId": ["3R16PJFTS3RQGYQNGECYNOF9QY34KX"], "SubmitTime": ["Tue Dec 05 21:45:30 PST 2017"], "AssignmentId": ["32VNZTT0A74FQM1BW1QWDKXCRRGR4N"], "WorkerId": ["CE18"], "Configs": {"sortAreaHeight": 864.9, "stagingAreaHeight": 172.98, "stimHeight": 72.83368421052631, "stimWidth": 113.62054736842106, "innerWidth": 1105, "sortAreaWidth": 442, "innerHeight": 961, "categoryBoxHeights": 691.92, "categoryBoxWidths": 221}, "HitTitle": ["Categorization study"]}, "Demographics": {"Gender": "Female", "Age": "30-49 years old", "Education": "college graduate"}, "Data": [{"im7_reclassified": null, "im3_y": 87.8337, "im3_x": -27.5449, "im7_colored_x": null, "im7_colored_y": null, "im7_src": "ims/im7.png", "im4_reclassified": null, "im1_y": 5, "im1_x": 228.101, "im1_region": "staging", "im3_region": "staging", "im5_region": "staging", "im3_colored_x": null, "im3_colored_y": null, "im7_y": 5, "im7_x": 355.924, "im6_reclassified": null, "im5_src": "ims/im5.png", "im4_colored_src": null, "im4_colored_region": null, "im7_colored_reclassified": null, "any_reclassifications": null, "im0_colored_src": null, "im0_colored_y": null, "im0_colored_x": null, "im3_colored_reclassified": null, "num_ambiguous_placements": 0, "im1_reclassified": null, "im2_reclassified": null, "im0_region": "staging", "im2_region": "staging", "im2_x": 100.278, "im2_y": 5, "im5_y": 87.8337, "im5_x": 355.924, "im4_src": "ims/im4.png", "rt": null, "im7_region": "staging", "im0_y": 87.8337, "im5_colored_reclassified": null, "im6_colored_reclassified": null, "im6_x": -27.5449, "im6_y": 5, "im3_colored_src": null, "im0_colored_region": null, "im2_colored_reclassified": null, "im1_src": "ims/im1.png", "im4_colored_y": null, "im4_colored_x": null, "im2_colored_y": null, "im2_colored_x": null, "trial": "starting_config", "im5_colored_region": null, "im5_reclassified": null, "im4_x": 228.101, "im4_y": 87.8337, "im6_colored_y": null, "im6_colored_x": null, "im0_colored_reclassified": null, "im2_src": "ims/im2.png", "im4_colored_reclassified": null, "im5_colored_src": null, "im2_colored_region": null, "im1_colored_reclassified": null, "im3_src": "ims/im3.png", "im7_colored_src": null, "im6_colored_region": null, "im5_colored_x": null, "im5_colored_y": null, "im1_colored_x": null, "reinforcement": null, "im1_colored_y": null, "im6_region": "staging", "im1_colored_src": null, "im0_src": "ims/im0.png", "example_true_category": null, "im7_colored_region": null, "im3_colored_region": null, "im2_colored_src": null, "total_reclassifications": null, "im3_reclassified": null, "im0_reclassified": null, "im0_x": 100.278, "im6_colored_src": null, "im1_colored_region": null, "im6_src": "ims/im6.png", "im4_region": "staging"}, {"im7_reclassified": true, "im3_y": 223, "im3_x": 255, "im7_colored_x": null, "im7_colored_y": null, "im7_src": "ims/im7.png", "im4_reclassified": true, "im1_y": 322, "im1_x": 25, "im1_region": "pink", "im3_region": "blue", "im5_region": "pink", "im3_colored_x": null, "im3_colored_y": null, "im7_y": 558, "im7_x": 52, "im6_reclassified": true, "im5_src": "ims/im5.png", "im4_colored_src": null, "im4_colored_region": null, "im7_colored_reclassified": null, "any_reclassifications": true, "im0_colored_src": null, "im0_colored_y": null, "im0_colored_x": null, "im3_colored_reclassified": null, "num_ambiguous_placements": 0, "im1_reclassified": true, "im2_reclassified": true, "im0_region": "blue", "im2_region": "pink", "im2_x": 41, "im2_y": 235, "im5_y": 658, "im5_x": 45, "im4_src": "ims/im4.png", "rt": 42991, "im7_region": "pink", "im0_y": 338, "im5_colored_reclassified": null, "im6_colored_reclassified": null, "im6_x": 49, "im6_y": 450, "im3_colored_src": null, "im0_colored_region": null, "im2_colored_reclassified": null, "im1_src": "ims/im1.png", "im4_colored_y": null, "im4_colored_x": null, "im2_colored_y": null, "im2_colored_x": null, "trial": "initial_classification", "im5_colored_region": null, "im5_reclassified": true, "im4_x": 68, "im4_y": 748, "im6_colored_y": null, "im6_colored_x": null, "im0_colored_reclassified": null, "im2_src": "ims/im2.png", "im4_colored_reclassified": null, "im5_colored_src": null, "im2_colored_region": null, "im1_colored_reclassified": null, "im3_src": "ims/im3.png", "im7_colored_src": null, "im6_colored_region": null, "im5_colored_x": null, "im5_colored_y": null, "im1_colored_x": null, "reinforcement": null, "im1_colored_y": null, "im6_region": "pink", "im1_colored_src": null, "im0_src": "ims/im0.png", "example_true_category": null, "im7_colored_region": null, "im3_colored_region": null, "im2_colored_src": null, "total_reclassifications": 8, "im3_reclassified": true, "im0_reclassified": true, "im0_x": 267, "im6_colored_src": null, "im1_colored_region": null, "im6_src": "ims/im6.png", "im4_region": "pink"}, {"im7_reclassified": false, "im3_y": 223, "im3_x": 255, "im7_colored_x": null, "im7_colored_y": null, "im7_src": "ims/im7.png", "im4_reclassified": false, "im1_y": 322, "im1_x": 25, "im1_region": "pink", "im3_region": "blue", "im5_region": "pink", "im3_colored_x": null, "im3_colored_y": null, "im7_y": 558, "im7_x": 52, "im6_reclassified": false, "im5_src": "ims/im5.png", "im4_colored_src": null, "im4_colored_region": null, "im7_colored_reclassified": null, "any_reclassifications": false, "im0_colored_src": "ims/im0_colored.png", "im0_colored_y": 322, "im0_colored_x": 267, "im3_colored_reclassified": null, "num_ambiguous_placements": 0, "im1_reclassified": false, "im2_reclassified": false, "im0_region": null, "im2_region": "pink", "im2_x": 41, "im2_y": 235, "im5_y": 658, "im5_x": 45, "im4_src": "ims/im4.png", "rt": 24306, "im7_region": "pink", "im0_y": null, "im5_colored_reclassified": null, "im6_colored_reclassified": null, "im6_x": 49, "im6_y": 450, "im3_colored_src": null, "im0_colored_region": "blue", "im2_colored_reclassified": null, "im1_src": "ims/im1.png", "im4_colored_y": null, "im4_colored_x": null, "im2_colored_y": null, "im2_colored_x": null, "trial": 0, "im5_colored_region": null, "im5_reclassified": false, "im4_x": 68, "im4_y": 748, "im6_colored_y": null, "im6_colored_x": null, "im0_colored_reclassified": null, "im2_src": "ims/im2.png", "im4_colored_reclassified": null, "im5_colored_src": null, "im2_colored_region": null, "im1_colored_reclassified": null, "im3_src": "ims/im3.png", "im7_colored_src": null, "im6_colored_region": null, "im5_colored_x": null, "im5_colored_y": null, "im1_colored_x": null, "reinforcement": "positive", "im1_colored_y": null, "im6_region": "pink", "im1_colored_src": null, "im0_src": null, "example_true_category": "blue", "im7_colored_region": null, "im3_colored_region": null, "im2_colored_src": null, "total_reclassifications": 0, "im3_reclassified": false, "im0_reclassified": null, "im0_x": null, "im6_colored_src": null, "im1_colored_region": null, "im6_src": "ims/im6.png", "im4_region": "pink"}, {"im7_reclassified": false, "im3_y": 324, "im3_x": 269, "im7_colored_x": null, "im7_colored_y": null, "im7_src": "ims/im7.png", "im4_reclassified": false, "im1_y": null, "im1_x": null, "im1_region": null, "im3_region": "blue", "im5_region": "pink", "im3_colored_x": null, "im3_colored_y": null, "im7_y": 558, "im7_x": 52, "im6_reclassified": false, "im5_src": "ims/im5.png", "im4_colored_src": null, "im4_colored_region": null, "im7_colored_reclassified": null, "any_reclassifications": false, "im0_colored_src": "ims/im0_colored.png", "im0_colored_y": 218, "im0_colored_x": 266, "im3_colored_reclassified": null, "num_ambiguous_placements": 0, "im1_reclassified": null, "im2_reclassified": false, "im0_region": null, "im2_region": "pink", "im2_x": 29, "im2_y": 352, "im5_y": 658, "im5_x": 45, "im4_src": "ims/im4.png", "rt": 12339, "im7_region": "pink", "im0_y": null, "im5_colored_reclassified": null, "im6_colored_reclassified": null, "im6_x": 49, "im6_y": 450, "im3_colored_src": null, "im0_colored_region": "blue", "im2_colored_reclassified": null, "im1_src": null, "im4_colored_y": null, "im4_colored_x": null, "im2_colored_y": null, "im2_colored_x": null, "trial": 1, "im5_colored_region": null, "im5_reclassified": false, "im4_x": 68, "im4_y": 748, "im6_colored_y": null, "im6_colored_x": null, "im0_colored_reclassified": false, "im2_src": "ims/im2.png", "im4_colored_reclassified": null, "im5_colored_src": null, "im2_colored_region": null, "im1_colored_reclassified": null, "im3_src": "ims/im3.png", "im7_colored_src": null, "im6_colored_region": null, "im5_colored_x": null, "im5_colored_y": null, "im1_colored_x": 37, "reinforcement": "positive", "im1_colored_y": 219, "im6_region": "pink", "im1_colored_src": "ims/im1_colored.png", "im0_src": null, "example_true_category": "pink", "im7_colored_region": null, "im3_colored_region": null, "im2_colored_src": null, "total_reclassifications": 0, "im3_reclassified": false, "im0_reclassified": null, "im0_x": null, "im6_colored_src": null, "im1_colored_region": "pink", "im6_src": "ims/im6.png", "im4_region": "pink"}, {"im7_reclassified": false, "im3_y": 324, "im3_x": 269, "im7_colored_x": null, "im7_colored_y": null, "im7_src": "ims/im7.png", "im4_reclassified": false, "im1_y": null, "im1_x": null, "im1_region": null, "im3_region": "blue", "im5_region": "pink", "im3_colored_x": null, "im3_colored_y": null, "im7_y": 558, "im7_x": 52, "im6_reclassified": false, "im5_src": "ims/im5.png", "im4_colored_src": null, "im4_colored_region": null, "im7_colored_reclassified": null, "any_reclassifications": false, "im0_colored_src": "ims/im0_colored.png", "im0_colored_y": 218, "im0_colored_x": 266, "im3_colored_reclassified": null, "num_ambiguous_placements": 0, "im1_reclassified": null, "im2_reclassified": null, "im0_region": null, "im2_region": null, "im2_x": null, "im2_y": null, "im5_y": 658, "im5_x": 45, "im4_src": "ims/im4.png", "rt": 7951, "im7_region": "pink", "im0_y": null, "im5_colored_reclassified": null, "im6_colored_reclassified": null, "im6_x": 49, "im6_y": 450, "im3_colored_src": null, "im0_colored_region": "blue", "im2_colored_reclassified": null, "im1_src": null, "im4_colored_y": null, "im4_colored_x": null, "im2_colored_y": 304, "im2_colored_x": 42, "trial": 2, "im5_colored_region": null, "im5_reclassified": false, "im4_x": 68, "im4_y": 748, "im6_colored_y": null, "im6_colored_x": null, "im0_colored_reclassified": false, "im2_src": null, "im4_colored_reclassified": null, "im5_colored_src": null, "im2_colored_region": "pink", "im1_colored_reclassified": false, "im3_src": "ims/im3.png", "im7_colored_src": null, "im6_colored_region": null, "im5_colored_x": null, "im5_colored_y": null, "im1_colored_x": 37, "reinforcement": "positive", "im1_colored_y": 219, "im6_region": "pink", "im1_colored_src": "ims/im1_colored.png", "im0_src": null, "example_true_category": "pink", "im7_colored_region": null, "im3_colored_region": null, "im2_colored_src": "ims/im2_colored.png", "total_reclassifications": 0, "im3_reclassified": false, "im0_reclassified": null, "im0_x": null, "im6_colored_src": null, "im1_colored_region": "pink", "im6_src": "ims/im6.png", "im4_region": "pink"}, {"im7_reclassified": false, "im3_y": null, "im3_x": null, "im7_colored_x": null, "im7_colored_y": null, "im7_src": "ims/im7.png", "im4_reclassified": false, "im1_y": null, "im1_x": null, "im1_region": null, "im3_region": null, "im5_region": "pink", "im3_colored_x": 266, "im3_colored_y": 315, "im7_y": 558, "im7_x": 52, "im6_reclassified": false, "im5_src": "ims/im5.png", "im4_colored_src": null, "im4_colored_region": null, "im7_colored_reclassified": null, "any_reclassifications": false, "im0_colored_src": "ims/im0_colored.png", "im0_colored_y": 218, "im0_colored_x": 266, "im3_colored_reclassified": null, "num_ambiguous_placements": 0, "im1_reclassified": null, "im2_reclassified": null, "im0_region": null, "im2_region": null, "im2_x": null, "im2_y": null, "im5_y": 658, "im5_x": 45, "im4_src": "ims/im4.png", "rt": 8739, "im7_region": "pink", "im0_y": null, "im5_colored_reclassified": null, "im6_colored_reclassified": null, "im6_x": 49, "im6_y": 450, "im3_colored_src": "ims/im3_colored.png", "im0_colored_region": "blue", "im2_colored_reclassified": false, "im1_src": null, "im4_colored_y": null, "im4_colored_x": null, "im2_colored_y": 304, "im2_colored_x": 42, "trial": 3, "im5_colored_region": null, "im5_reclassified": false, "im4_x": 68, "im4_y": 748, "im6_colored_y": null, "im6_colored_x": null, "im0_colored_reclassified": false, "im2_src": null, "im4_colored_reclassified": null, "im5_colored_src": null, "im2_colored_region": "pink", "im1_colored_reclassified": false, "im3_src": null, "im7_colored_src": null, "im6_colored_region": null, "im5_colored_x": null, "im5_colored_y": null, "im1_colored_x": 37, "reinforcement": "positive", "im1_colored_y": 219, "im6_region": "pink", "im1_colored_src": "ims/im1_colored.png", "im0_src": null, "example_true_category": "blue", "im7_colored_region": null, "im3_colored_region": "blue", "im2_colored_src": "ims/im2_colored.png", "total_reclassifications": 0, "im3_reclassified": null, "im0_reclassified": null, "im0_x": null, "im6_colored_src": null, "im1_colored_region": "pink", "im6_src": "ims/im6.png", "im4_region": "pink"}, {"im7_reclassified": false, "im3_y": null, "im3_x": null, "im7_colored_x": null, "im7_colored_y": null, "im7_src": "ims/im7.png", "im4_reclassified": null, "im1_y": null, "im1_x": null, "im1_region": null, "im3_region": null, "im5_region": "pink", "im3_colored_x": 266, "im3_colored_y": 315, "im7_y": 558, "im7_x": 52, "im6_reclassified": false, "im4_y": null, "im4_colored_src": "ims/im4_colored.png", "im4_colored_region": "pink", "im7_colored_reclassified": null, "any_reclassifications": false, "im0_colored_src": "ims/im0_colored.png", "im0_colored_y": 218, "im0_colored_x": 266, "im3_colored_reclassified": false, "num_ambiguous_placements": 0, "im1_reclassified": null, "im2_reclassified": null, "im0_region": null, "im2_region": null, "im2_x": null, "im2_y": null, "im5_y": 658, "im5_x": 45, "im4_src": null, "rt": 8727, "im7_region": "pink", "im0_y": null, "im5_colored_reclassified": null, "im6_colored_reclassified": null, "im6_x": 52, "im6_y": 754, "im3_colored_src": "ims/im3_colored.png", "im0_colored_region": "blue", "im2_colored_reclassified": false, "im1_src": null, "im4_colored_y": 394, "im4_colored_x": 48, "im2_colored_y": 304, "im2_colored_x": 42, "trial": 4, "im5_colored_region": null, "im5_reclassified": false, "im4_x": null, "im5_src": "ims/im5.png", "im6_colored_y": null, "im6_colored_x": null, "im0_colored_reclassified": false, "im2_src": null, "im4_colored_reclassified": null, "im5_colored_src": null, "im2_colored_region": "pink", "im1_colored_reclassified": false, "im3_src": null, "im7_colored_src": null, "im6_colored_region": null, "im5_colored_x": null, "im5_colored_y": null, "im1_colored_x": 37, "reinforcement": "positive", "im1_colored_y": 219, "im6_region": "pink", "im1_colored_src": "ims/im1_colored.png", "im0_src": null, "example_true_category": "pink", "im7_colored_region": null, "im3_colored_region": "blue", "im2_colored_src": "ims/im2_colored.png", "total_reclassifications": 0, "im3_reclassified": null, "im0_reclassified": null, "im0_x": null, "im6_colored_src": null, "im1_colored_region": "pink", "im6_src": "ims/im6.png", "im4_region": null}, {"im7_reclassified": false, "im3_y": null, "im3_x": null, "im7_colored_x": null, "im7_colored_y": null, "im7_src": "ims/im7.png", "im4_reclassified": null, "im1_y": null, "im1_x": null, "im1_region": null, "im3_region": null, "im5_region": null, "im3_colored_x": 266, "im3_colored_y": 315, "im7_y": 660, "im7_x": 49, "im6_reclassified": false, "im5_src": null, "im4_colored_src": "ims/im4_colored.png", "im4_colored_region": "pink", "im7_colored_reclassified": null, "any_reclassifications": false, "im0_colored_src": "ims/im0_colored.png", "im0_colored_y": 218, "im0_colored_x": 266, "im3_colored_reclassified": false, "num_ambiguous_placements": 0, "im1_reclassified": null, "im2_reclassified": null, "im0_region": null, "im2_region": null, "im2_x": null, "im2_y": null, "im5_y": null, "im5_x": null, "im4_src": null, "rt": 7164, "im7_region": "pink", "im0_y": null, "im5_colored_reclassified": null, "im6_colored_reclassified": null, "im6_x": 52, "im6_y": 754, "im3_colored_src": "ims/im3_colored.png", "im0_colored_region": "blue", "im2_colored_reclassified": false, "im1_src": null, "im4_colored_y": 394, "im4_colored_x": 48, "im2_colored_y": 304, "im2_colored_x": 42, "trial": 5, "im5_colored_region": "pink", "im5_colored_src": "ims/im5_colored.png", "im4_x": null, "im4_y": null, "im6_colored_y": null, "im6_colored_x": null, "im0_colored_reclassified": false, "im2_src": null, "im4_colored_reclassified": false, "im5_reclassified": null, "im2_colored_region": "pink", "im1_colored_reclassified": false, "im3_src": null, "im7_colored_src": null, "im6_colored_region": null, "im5_colored_x": 42, "im5_colored_y": 489, "im1_colored_x": 37, "reinforcement": "positive", "im1_colored_y": 219, "im6_region": "pink", "im1_colored_src": "ims/im1_colored.png", "im0_src": null, "example_true_category": "pink", "im7_colored_region": null, "im3_colored_region": "blue", "im2_colored_src": "ims/im2_colored.png", "total_reclassifications": 0, "im3_reclassified": null, "im0_reclassified": null, "im0_x": null, "im6_colored_src": null, "im1_colored_region": "pink", "im6_src": "ims/im6.png", "im4_region": null}, {"im7_reclassified": true, "im3_y": null, "im3_x": null, "im7_colored_x": null, "im7_colored_y": null, "im7_src": "ims/im7.png", "im4_reclassified": null, "im1_y": null, "im1_x": null, "im1_region": null, "im3_region": null, "im5_region": null, "im3_colored_x": 266, "im3_colored_y": 315, "im7_y": 515, "im7_x": 277, "im6_reclassified": null, "im4_y": null, "im4_colored_src": "ims/im4_colored.png", "im4_colored_region": "pink", "im7_colored_reclassified": null, "any_reclassifications": true, "im0_colored_src": "ims/im0_colored.png", "im0_colored_y": 218, "im0_colored_x": 266, "im3_colored_reclassified": false, "num_ambiguous_placements": 0, "im1_reclassified": null, "im2_reclassified": null, "im0_region": null, "im2_region": null, "im2_x": null, "im2_y": null, "im5_y": null, "im5_x": null, "im4_src": null, "rt": 12598, "im7_region": "blue", "im0_y": null, "im5_colored_reclassified": false, "im6_colored_reclassified": null, "im6_x": null, "im6_y": null, "im3_colored_src": "ims/im3_colored.png", "im0_colored_region": "blue", "im2_colored_reclassified": false, "im1_src": null, "im4_colored_y": 394, "im4_colored_x": 48, "im2_colored_y": 304, "im2_colored_x": 42, "trial": 6, "im5_colored_region": "pink", "im5_reclassified": null, "im4_x": null, "im6_colored_src": "ims/im6_colored.png", "im6_colored_y": 426, "im6_colored_x": 268, "im0_colored_reclassified": false, "im2_src": null, "im4_colored_reclassified": false, "im5_colored_src": "ims/im5_colored.png", "im2_colored_region": "pink", "im1_colored_reclassified": false, "im3_src": null, "im7_colored_src": null, "im6_colored_region": "blue", "im5_colored_x": 42, "im5_colored_y": 489, "im1_colored_x": 37, "reinforcement": "negative", "im1_colored_y": 219, "im6_region": null, "im1_colored_src": "ims/im1_colored.png", "im0_src": null, "example_true_category": "blue", "im7_colored_region": null, "im3_colored_region": "blue", "im5_src": null, "im2_colored_src": "ims/im2_colored.png", "total_reclassifications": 1, "im3_reclassified": null, "im0_reclassified": null, "im0_x": null, "im1_colored_region": "pink", "im6_src": null, "im4_region": null}, {"im7_reclassified": null, "im3_y": null, "im3_x": null, "im7_colored_x": 269, "im7_colored_y": 524, "im7_src": null, "im4_reclassified": null, "im1_y": null, "im1_x": null, "im1_region": null, "im3_region": null, "im5_region": null, "im3_colored_x": 266, "im3_colored_y": 315, "im7_y": null, "im7_x": null, "im6_reclassified": null, "im4_y": null, "im4_colored_src": "ims/im4_colored.png", "im4_colored_region": "pink", "im7_colored_reclassified": null, "any_reclassifications": false, "im0_colored_src": "ims/im0_colored.png", "im0_colored_y": 218, "im0_colored_x": 266, "im3_colored_reclassified": false, "num_ambiguous_placements": 0, "im1_reclassified": null, "im2_reclassified": null, "im0_region": null, "im2_region": null, "im2_x": null, "im2_y": null, "im5_y": null, "im5_x": null, "im4_src": null, "rt": 17729, "im7_region": null, "im0_y": null, "im5_colored_reclassified": false, "im6_colored_reclassified": false, "im6_x": null, "im6_y": null, "im3_colored_src": "ims/im3_colored.png", "im0_colored_region": "blue", "im2_colored_reclassified": false, "im1_src": null, "im4_colored_y": 394, "im4_colored_x": 48, "im2_colored_y": 304, "im2_colored_x": 42, "trial": 7, "im5_colored_region": "pink", "im5_reclassified": null, "im4_x": null, "im6_colored_src": "ims/im6_colored.png", "im6_colored_y": 426, "im6_colored_x": 268, "im0_colored_reclassified": false, "im2_src": null, "im4_colored_reclassified": false, "im5_colored_src": "ims/im5_colored.png", "im2_colored_region": "pink", "im1_colored_reclassified": false, "im3_src": null, "im7_colored_src": "ims/im7_colored.png", "im6_colored_region": "blue", "im5_colored_x": 42, "im5_colored_y": 489, "im1_colored_x": 37, "reinforcement": "positive", "im1_colored_y": 219, "im6_region": null, "im1_colored_src": "ims/im1_colored.png", "im0_src": null, "example_true_category": "blue", "im7_colored_region": "blue", "im3_colored_region": "blue", "im5_src": null, "im2_colored_src": "ims/im2_colored.png", "total_reclassifications": 0, "im3_reclassified": null, "im0_reclassified": null, "im0_x": null, "im1_colored_region": "pink", "im6_src": null, "im4_region": null}], "ProblemReport": {"rt": 4508, "trial_type": "survey-text", "responses": {"Q0": ""}, "internal_node_id": "0.0-3.0", "time_elapsed": 181882, "trial_index": 3}}