{"HITInfo": {"Status": ["Approved"], "AcceptTime": ["Tue Dec 05 21:39:06 PST 2017"], "HitId": ["3R16PJFTS3RQGYQNGECYNOF9QY34KX"], "SubmitTime": ["Tue Dec 05 22:35:59 PST 2017"], "AssignmentId": ["3GA6AFUKOOOHJW440I9JPB30QIKH3T"], "WorkerId": ["CE22"], "Configs": {"sortAreaHeight": 872.1, "stagingAreaHeight": 174.42000000000002, "stimHeight": 73.44000000000001, "stimWidth": 114.56640000000002, "innerWidth": 919, "sortAreaWidth": 367.6, "innerHeight": 969, "categoryBoxHeights": 697.6800000000001, "categoryBoxWidths": 183.8}, "HitTitle": ["Categorization study"]}, "Demographics": {"Gender": "Male", "Age": "18-29 years old", "Education": "college graduate"}, "Data": [{"im7_reclassified": null, "im3_y": 5, "im3_x": 319.848, "im7_colored_x": null, "im7_colored_y": null, "im7_src": "ims/im7.png", "im4_reclassified": null, "im1_y": 5, "im1_x": -66.814, "im1_region": "staging", "im3_region": "staging", "im5_region": "staging", "im3_colored_x": null, "im3_colored_y": null, "im7_y": 5, "im7_x": 62.0732, "im6_reclassified": null, "im4_y": 88.44, "im4_colored_src": null, "im4_colored_region": null, "im7_colored_reclassified": null, "any_reclassifications": null, "im0_colored_src": null, "im0_colored_y": null, "im0_colored_x": null, "im3_colored_reclassified": null, "num_ambiguous_placements": 0, "im1_reclassified": null, "im2_reclassified": null, "im0_region": "staging", "im2_region": "staging", "im2_x": 319.848, "im2_y": 88.44, "im5_y": 5, "im5_x": 190.96, "im4_src": "ims/im4.png", "rt": null, "im7_region": "staging", "im0_y": 88.44, "im5_colored_reclassified": null, "im6_colored_reclassified": null, "im6_x": 190.96, "im6_y": 88.44, "im3_colored_src": null, "im0_colored_region": null, "im2_colored_reclassified": null, "im1_src": "ims/im1.png", "im4_colored_y": null, "im4_colored_x": null, "im2_colored_y": null, "im2_colored_x": null, "trial": "starting_config", "im5_colored_region": null, "im5_reclassified": null, "im4_x": 62.0732, "im5_src": "ims/im5.png", "im6_colored_y": null, "im6_colored_x": null, "im0_colored_reclassified": null, "im2_src": "ims/im2.png", "im4_colored_reclassified": null, "im5_colored_src": null, "im2_colored_region": null, "im1_colored_reclassified": null, "im3_src": "ims/im3.png", "im7_colored_src": null, "im6_colored_region": null, "im5_colored_x": null, "im5_colored_y": null, "im1_colored_x": null, "reinforcement": null, "im1_colored_y": null, "im6_region": "staging", "im1_colored_src": null, "im0_src": "ims/im0.png", "example_true_category": null, "im7_colored_region": null, "im3_colored_region": null, "im2_colored_src": null, "total_reclassifications": null, "im3_reclassified": null, "im0_reclassified": null, "im0_x": -66.814, "im6_colored_src": null, "im1_colored_region": null, "im6_src": "ims/im6.png", "im4_region": "staging"}, {"im7_reclassified": true, "im3_y": 365, "im3_x": 221, "im7_colored_x": null, "im7_colored_y": null, "im7_src": "ims/im7.png", "im4_reclassified": true, "im1_y": 267, "im1_x": 206, "im1_region": "blue", "im3_region": "blue", "im5_region": "blue", "im3_colored_x": null, "im3_colored_y": null, "im7_y": 556, "im7_x": 217, "im6_reclassified": true, "im4_y": 348, "im4_colored_src": null, "im4_colored_region": null, "im7_colored_reclassified": null, "any_reclassifications": true, "im0_colored_src": null, "im0_colored_y": null, "im0_colored_x": null, "im3_colored_reclassified": null, "num_ambiguous_placements": 0, "im1_reclassified": true, "im2_reclassified": true, "im0_region": "pink", "im2_region": "pink", "im2_x": 20, "im2_y": 529, "im5_y": 471, "im5_x": 212, "im4_src": "ims/im4.png", "rt": 16442, "im7_region": "blue", "im0_y": 255, "im5_colored_reclassified": null, "im6_colored_reclassified": null, "im6_x": 20, "im6_y": 440, "im3_colored_src": null, "im0_colored_region": null, "im2_colored_reclassified": null, "im1_src": "ims/im1.png", "im4_colored_y": null, "im4_colored_x": null, "im2_colored_y": null, "im2_colored_x": null, "trial": "initial_classification", "im5_colored_region": null, "im5_reclassified": true, "im4_x": 23, "im5_src": "ims/im5.png", "im6_colored_y": null, "im6_colored_x": null, "im0_colored_reclassified": null, "im2_src": "ims/im2.png", "im4_colored_reclassified": null, "im5_colored_src": null, "im2_colored_region": null, "im1_colored_reclassified": null, "im3_src": "ims/im3.png", "im7_colored_src": null, "im6_colored_region": null, "im5_colored_x": null, "im5_colored_y": null, "im1_colored_x": null, "reinforcement": null, "im1_colored_y": null, "im6_region": "pink", "im1_colored_src": null, "im0_src": "ims/im0.png", "example_true_category": null, "im7_colored_region": null, "im3_colored_region": null, "im2_colored_src": null, "total_reclassifications": 8, "im3_reclassified": true, "im0_reclassified": true, "im0_x": 24, "im6_colored_src": null, "im1_colored_region": null, "im6_src": "ims/im6.png", "im4_region": "pink"}, {"im7_reclassified": false, "im3_y": 365, "im3_x": 221, "im7_colored_x": null, "im7_colored_y": null, "im7_src": "ims/im7.png", "im4_reclassified": false, "im1_y": 267, "im1_x": 206, "im1_region": "blue", "im3_region": "blue", "im5_region": "blue", "im3_colored_x": null, "im3_colored_y": null, "im7_y": 556, "im7_x": 217, "im6_reclassified": false, "im4_y": 348, "im4_colored_src": null, "im4_colored_region": null, "im7_colored_reclassified": null, "any_reclassifications": false, "im0_colored_src": "ims/im0_colored.png", "im0_colored_y": 0, "im0_colored_x": 126.517, "im3_colored_reclassified": null, "num_ambiguous_placements": 0, "im1_reclassified": false, "im2_reclassified": false, "im0_region": null, "im2_region": "pink", "im2_x": 20, "im2_y": 529, "im5_y": 471, "im5_x": 212, "im4_src": "ims/im4.png", "rt": 3890, "im7_region": "blue", "im0_y": null, "im5_colored_reclassified": null, "im6_colored_reclassified": null, "im6_x": 20, "im6_y": 440, "im3_colored_src": null, "im0_colored_region": "staging", "im2_colored_reclassified": null, "im1_src": "ims/im1.png", "im4_colored_y": null, "im4_colored_x": null, "im2_colored_y": null, "im2_colored_x": null, "trial": 0, "im5_colored_region": null, "im5_reclassified": false, "im4_x": 23, "im5_src": "ims/im5.png", "im6_colored_y": null, "im6_colored_x": null, "im0_colored_reclassified": null, "im2_src": "ims/im2.png", "im4_colored_reclassified": null, "im5_colored_src": null, "im2_colored_region": null, "im1_colored_reclassified": null, "im3_src": "ims/im3.png", "im7_colored_src": null, "im6_colored_region": null, "im5_colored_x": null, "im5_colored_y": null, "im1_colored_x": null, "reinforcement": "negative", "im1_colored_y": null, "im6_region": "pink", "im1_colored_src": null, "im0_src": null, "example_true_category": "blue", "im7_colored_region": null, "im3_colored_region": null, "im2_colored_src": null, "total_reclassifications": 0, "im3_reclassified": false, "im0_reclassified": null, "im0_x": null, "im6_colored_src": null, "im1_colored_region": null, "im6_src": "ims/im6.png", "im4_region": "pink"}, {"im7_reclassified": false, "im3_y": 365, "im3_x": 221, "im7_colored_x": null, "im7_colored_y": null, "im7_src": "ims/im7.png", "im4_reclassified": false, "im1_y": null, "im1_x": null, "im1_region": null, "im3_region": "blue", "im5_region": "blue", "im3_colored_x": null, "im3_colored_y": null, "im7_y": 556, "im7_x": 217, "im6_reclassified": false, "im5_src": "ims/im5.png", "im4_colored_src": null, "im4_colored_region": null, "im7_colored_reclassified": null, "any_reclassifications": false, "im0_colored_src": "ims/im0_colored.png", "im0_colored_y": 0, "im0_colored_x": 126.517, "im3_colored_reclassified": null, "num_ambiguous_placements": 0, "im1_reclassified": null, "im2_reclassified": false, "im0_region": null, "im2_region": "pink", "im2_x": 20, "im2_y": 529, "im5_y": 471, "im5_x": 212, "im4_src": "ims/im4.png", "rt": 1765, "im7_region": "blue", "im0_y": null, "im5_colored_reclassified": null, "im6_colored_reclassified": null, "im6_x": 20, "im6_y": 440, "im3_colored_src": null, "im0_colored_region": "staging", "im2_colored_reclassified": null, "im1_src": null, "im4_colored_y": null, "im4_colored_x": null, "im2_colored_y": null, "im2_colored_x": null, "trial": 1, "im5_colored_region": null, "im5_reclassified": false, "im4_x": 23, "im4_y": 348, "im6_colored_y": null, "im6_colored_x": null, "im0_colored_reclassified": false, "im2_src": "ims/im2.png", "im4_colored_reclassified": null, "im5_colored_src": null, "im2_colored_region": null, "im1_colored_reclassified": null, "im3_src": "ims/im3.png", "im7_colored_src": null, "im6_colored_region": null, "im5_colored_x": null, "im5_colored_y": null, "im1_colored_x": 206, "reinforcement": "negative", "im1_colored_y": 267, "im6_region": "pink", "im1_colored_src": "ims/im1_colored.png", "im0_src": null, "example_true_category": "pink", "im7_colored_region": null, "im3_colored_region": null, "im2_colored_src": null, "total_reclassifications": 0, "im3_reclassified": false, "im0_reclassified": null, "im0_x": null, "im6_colored_src": null, "im1_colored_region": "blue", "im6_src": "ims/im6.png", "im4_region": "pink"}, {"im7_reclassified": false, "im3_y": 365, "im3_x": 221, "im7_colored_x": null, "im7_colored_y": null, "im7_src": "ims/im7.png", "im4_reclassified": false, "im1_y": null, "im1_x": null, "im1_region": null, "im3_region": "blue", "im5_region": "blue", "im3_colored_x": null, "im3_colored_y": null, "im7_y": 556, "im7_x": 217, "im6_reclassified": false, "im5_src": "ims/im5.png", "im4_colored_src": null, "im4_colored_region": null, "im7_colored_reclassified": null, "any_reclassifications": false, "im0_colored_src": "ims/im0_colored.png", "im0_colored_y": 0, "im0_colored_x": 126.517, "im3_colored_reclassified": null, "num_ambiguous_placements": 0, "im1_reclassified": null, "im2_reclassified": null, "im0_region": null, "im2_region": null, "im2_x": null, "im2_y": null, "im5_y": 471, "im5_x": 212, "im4_src": "ims/im4.png", "rt": 4173, "im7_region": "blue", "im0_y": null, "im5_colored_reclassified": null, "im6_colored_reclassified": null, "im6_x": 20, "im6_y": 440, "im3_colored_src": null, "im0_colored_region": "staging", "im2_colored_reclassified": null, "im1_src": null, "im4_colored_y": null, "im4_colored_x": null, "im2_colored_y": 0, "im2_colored_x": 126.517, "trial": 2, "im5_colored_region": null, "im5_reclassified": false, "im4_x": 23, "im4_y": 348, "im6_colored_y": null, "im6_colored_x": null, "im0_colored_reclassified": false, "im2_src": null, "im4_colored_reclassified": null, "im5_colored_src": null, "im2_colored_region": "staging", "im1_colored_reclassified": false, "im3_src": "ims/im3.png", "im7_colored_src": null, "im6_colored_region": null, "im5_colored_x": null, "im5_colored_y": null, "im1_colored_x": 206, "reinforcement": "positive", "im1_colored_y": 267, "im6_region": "pink", "im1_colored_src": "ims/im1_colored.png", "im0_src": null, "example_true_category": "pink", "im7_colored_region": null, "im3_colored_region": null, "im2_colored_src": "ims/im2_colored.png", "total_reclassifications": 0, "im3_reclassified": false, "im0_reclassified": null, "im0_x": null, "im6_colored_src": null, "im1_colored_region": "blue", "im6_src": "ims/im6.png", "im4_region": "pink"}, {"im7_reclassified": false, "im3_y": null, "im3_x": null, "im7_colored_x": null, "im7_colored_y": null, "im7_src": "ims/im7.png", "im4_reclassified": false, "im1_y": null, "im1_x": null, "im1_region": null, "im3_region": null, "im5_region": "blue", "im3_colored_x": 126.517, "im3_colored_y": 0, "im7_y": 556, "im7_x": 217, "im6_reclassified": false, "im5_src": "ims/im5.png", "im4_colored_src": null, "im4_colored_region": null, "im7_colored_reclassified": null, "any_reclassifications": false, "im0_colored_src": "ims/im0_colored.png", "im0_colored_y": 0, "im0_colored_x": 126.517, "im3_colored_reclassified": null, "num_ambiguous_placements": 0, "im1_reclassified": null, "im2_reclassified": null, "im0_region": null, "im2_region": null, "im2_x": null, "im2_y": null, "im5_y": 471, "im5_x": 212, "im4_src": "ims/im4.png", "rt": 4311, "im7_region": "blue", "im0_y": null, "im5_colored_reclassified": null, "im6_colored_reclassified": null, "im6_x": 20, "im6_y": 440, "im3_colored_src": "ims/im3_colored.png", "im0_colored_region": "staging", "im2_colored_reclassified": false, "im1_src": null, "im4_colored_y": null, "im4_colored_x": null, "im2_colored_y": 0, "im2_colored_x": 126.517, "trial": 3, "im5_colored_region": null, "im5_reclassified": false, "im4_x": 23, "im4_y": 348, "im6_colored_y": null, "im6_colored_x": null, "im0_colored_reclassified": false, "im2_src": null, "im4_colored_reclassified": null, "im5_colored_src": null, "im2_colored_region": "staging", "im1_colored_reclassified": false, "im3_src": null, "im7_colored_src": null, "im6_colored_region": null, "im5_colored_x": null, "im5_colored_y": null, "im1_colored_x": 206, "reinforcement": "positive", "im1_colored_y": 267, "im6_region": "pink", "im1_colored_src": "ims/im1_colored.png", "im0_src": null, "example_true_category": "blue", "im7_colored_region": null, "im3_colored_region": "staging", "im2_colored_src": "ims/im2_colored.png", "total_reclassifications": 0, "im3_reclassified": null, "im0_reclassified": null, "im0_x": null, "im6_colored_src": null, "im1_colored_region": "blue", "im6_src": "ims/im6.png", "im4_region": "pink"}, {"im7_reclassified": false, "im3_y": null, "im3_x": null, "im7_colored_x": null, "im7_colored_y": null, "im7_src": "ims/im7.png", "im4_reclassified": null, "im1_y": null, "im1_x": null, "im1_region": null, "im3_region": null, "im5_region": "blue", "im3_colored_x": 126.517, "im3_colored_y": 0, "im7_y": 556, "im7_x": 217, "im6_reclassified": false, "im4_y": null, "im4_colored_src": "ims/im4_colored.png", "im4_colored_region": "pink", "im7_colored_reclassified": null, "any_reclassifications": false, "im0_colored_src": "ims/im0_colored.png", "im0_colored_y": 0, "im0_colored_x": 126.517, "im3_colored_reclassified": false, "num_ambiguous_placements": 0, "im1_reclassified": null, "im2_reclassified": null, "im0_region": null, "im2_region": null, "im2_x": null, "im2_y": null, "im5_y": 471, "im5_x": 212, "im4_src": null, "rt": 2389, "im7_region": "blue", "im0_y": null, "im5_colored_reclassified": null, "im6_colored_reclassified": null, "im6_x": 20, "im6_y": 440, "im3_colored_src": "ims/im3_colored.png", "im0_colored_region": "staging", "im2_colored_reclassified": false, "im1_src": null, "im4_colored_y": 348, "im4_colored_x": 23, "im2_colored_y": 0, "im2_colored_x": 126.517, "trial": 4, "im5_colored_region": null, "im5_reclassified": false, "im4_x": null, "im5_src": "ims/im5.png", "im6_colored_y": null, "im6_colored_x": null, "im0_colored_reclassified": false, "im2_src": null, "im4_colored_reclassified": null, "im5_colored_src": null, "im2_colored_region": "staging", "im1_colored_reclassified": false, "im3_src": null, "im7_colored_src": null, "im6_colored_region": null, "im5_colored_x": null, "im5_colored_y": null, "im1_colored_x": 206, "reinforcement": "positive", "im1_colored_y": 267, "im6_region": "pink", "im1_colored_src": "ims/im1_colored.png", "im0_src": null, "example_true_category": "pink", "im7_colored_region": null, "im3_colored_region": "staging", "im2_colored_src": "ims/im2_colored.png", "total_reclassifications": 0, "im3_reclassified": null, "im0_reclassified": null, "im0_x": null, "im6_colored_src": null, "im1_colored_region": "blue", "im6_src": "ims/im6.png", "im4_region": null}, {"im7_reclassified": false, "im3_y": null, "im3_x": null, "im7_colored_x": null, "im7_colored_y": null, "im7_src": "ims/im7.png", "im4_reclassified": null, "im1_y": null, "im1_x": null, "im1_region": null, "im3_region": null, "im5_region": null, "im3_colored_x": 126.517, "im3_colored_y": 0, "im7_y": 556, "im7_x": 217, "im6_reclassified": false, "im5_src": null, "im4_colored_src": "ims/im4_colored.png", "im4_colored_region": "pink", "im7_colored_reclassified": null, "any_reclassifications": false, "im0_colored_src": "ims/im0_colored.png", "im0_colored_y": 0, "im0_colored_x": 126.517, "im3_colored_reclassified": false, "num_ambiguous_placements": 1, "im1_reclassified": null, "im2_reclassified": null, "im0_region": null, "im2_region": null, "im2_x": null, "im2_y": null, "im5_y": null, "im5_x": null, "im4_src": null, "rt": 3094, "im7_region": "blue", "im0_y": null, "im5_colored_reclassified": null, "im6_colored_reclassified": null, "im6_x": 20, "im6_y": 440, "im3_colored_src": "ims/im3_colored.png", "im0_colored_region": "staging", "im2_colored_reclassified": false, "im1_src": null, "im4_colored_y": 348, "im4_colored_x": 23, "im2_colored_y": 0, "im2_colored_x": 126.517, "trial": 5, "im5_colored_region": "ambiguous", "im5_colored_src": "ims/im5_colored.png", "im4_x": null, "im4_y": null, "im6_colored_y": null, "im6_colored_x": null, "im0_colored_reclassified": false, "im2_src": null, "im4_colored_reclassified": false, "im5_reclassified": null, "im2_colored_region": "staging", "im1_colored_reclassified": false, "im3_src": null, "im7_colored_src": null, "im6_colored_region": null, "im5_colored_x": 159.673, "im5_colored_y": 182.684, "im1_colored_x": 206, "reinforcement": "negative", "im1_colored_y": 267, "im6_region": "pink", "im1_colored_src": "ims/im1_colored.png", "im0_src": null, "example_true_category": "pink", "im7_colored_region": null, "im3_colored_region": "staging", "im2_colored_src": "ims/im2_colored.png", "total_reclassifications": 0, "im3_reclassified": null, "im0_reclassified": null, "im0_x": null, "im6_colored_src": null, "im1_colored_region": "blue", "im6_src": "ims/im6.png", "im4_region": null}, {"im7_reclassified": false, "im3_y": null, "im3_x": null, "im7_colored_x": null, "im7_colored_y": null, "im7_src": "ims/im7.png", "im4_reclassified": null, "im1_y": null, "im1_x": null, "im1_region": null, "im3_region": null, "im5_region": null, "im3_colored_x": 126.517, "im3_colored_y": 0, "im7_y": 556, "im7_x": 217, "im6_reclassified": null, "im4_y": null, "im4_colored_src": "ims/im4_colored.png", "im4_colored_region": "pink", "im7_colored_reclassified": null, "any_reclassifications": false, "im0_colored_src": "ims/im0_colored.png", "im0_colored_y": 0, "im0_colored_x": 126.517, "im3_colored_reclassified": false, "num_ambiguous_placements": 1, "im1_reclassified": null, "im2_reclassified": null, "im0_region": null, "im2_region": null, "im2_x": null, "im2_y": null, "im5_y": null, "im5_x": null, "im4_src": null, "rt": 1357, "im7_region": "blue", "im0_y": null, "im5_colored_reclassified": false, "im6_colored_reclassified": null, "im6_x": null, "im6_y": null, "im3_colored_src": "ims/im3_colored.png", "im0_colored_region": "staging", "im2_colored_reclassified": false, "im1_src": null, "im4_colored_y": 348, "im4_colored_x": 23, "im2_colored_y": 0, "im2_colored_x": 126.517, "trial": 6, "im5_colored_region": "ambiguous", "im5_reclassified": null, "im4_x": null, "im6_colored_src": "ims/im6_colored.png", "im6_colored_y": 440, "im6_colored_x": 20, "im0_colored_reclassified": false, "im2_src": null, "im4_colored_reclassified": false, "im5_colored_src": "ims/im5_colored.png", "im2_colored_region": "staging", "im1_colored_reclassified": false, "im3_src": null, "im7_colored_src": null, "im6_colored_region": "pink", "im5_colored_x": 159.673, "im5_colored_y": 182.684, "im1_colored_x": 206, "reinforcement": "negative", "im1_colored_y": 267, "im6_region": null, "im1_colored_src": "ims/im1_colored.png", "im0_src": null, "example_true_category": "blue", "im7_colored_region": null, "im3_colored_region": "staging", "im5_src": null, "im2_colored_src": "ims/im2_colored.png", "total_reclassifications": 0, "im3_reclassified": null, "im0_reclassified": null, "im0_x": null, "im1_colored_region": "blue", "im6_src": null, "im4_region": null}, {"im7_reclassified": null, "im3_y": null, "im3_x": null, "im7_colored_x": 229, "im7_colored_y": 246, "im7_src": null, "im4_reclassified": null, "im1_y": null, "im1_x": null, "im1_region": null, "im3_region": null, "im5_region": null, "im3_colored_x": 231, "im3_colored_y": 330, "im7_y": null, "im7_x": null, "im6_reclassified": null, "im4_y": null, "im4_colored_src": "ims/im4_colored.png", "im4_colored_region": "pink", "im7_colored_reclassified": null, "any_reclassifications": true, "im0_colored_src": "ims/im0_colored.png", "im0_colored_y": 523, "im0_colored_x": 233, "im3_colored_reclassified": true, "num_ambiguous_placements": 0, "im1_reclassified": null, "im2_reclassified": null, "im0_region": null, "im2_region": null, "im2_x": null, "im2_y": null, "im5_y": null, "im5_x": null, "im4_src": null, "rt": 43930, "im7_region": null, "im0_y": null, "im5_colored_reclassified": true, "im6_colored_reclassified": true, "im6_x": null, "im6_y": null, "im3_colored_src": "ims/im3_colored.png", "im0_colored_region": "blue", "im2_colored_reclassified": true, "im1_src": null, "im4_colored_y": 330, "im4_colored_x": 52, "im2_colored_y": 547, "im2_colored_x": 48, "trial": 7, "im5_colored_region": "pink", "im5_reclassified": null, "im4_x": null, "im6_colored_src": "ims/im6_colored.png", "im6_colored_y": 418, "im6_colored_x": 240, "im0_colored_reclassified": true, "im2_src": null, "im4_colored_reclassified": false, "im5_colored_src": "ims/im5_colored.png", "im2_colored_region": "pink", "im1_colored_reclassified": true, "im3_src": null, "im7_colored_src": "ims/im7_colored.png", "im6_colored_region": "blue", "im5_colored_x": 42, "im5_colored_y": 440, "im1_colored_x": 47, "reinforcement": "positive", "im1_colored_y": 252, "im6_region": null, "im1_colored_src": "ims/im1_colored.png", "im0_src": null, "example_true_category": "blue", "im7_colored_region": "blue", "im3_colored_region": "blue", "im5_src": null, "im2_colored_src": "ims/im2_colored.png", "total_reclassifications": 6, "im3_reclassified": null, "im0_reclassified": null, "im0_x": null, "im1_colored_region": "pink", "im6_src": null, "im4_region": null}], "ProblemReport": {"rt": 4334, "trial_type": "survey-text", "responses": {"Q0": "no"}, "internal_node_id": "0.0-3.0", "time_elapsed": 92671, "trial_index": 3}}