{"HITInfo": {"Status": ["Approved"], "AcceptTime": ["Tue Dec 05 21:39:16 PST 2017"], "HitId": ["3ZUE82NE0A1GJDLBR6BEON39KOIF8D"], "SubmitTime": ["Tue Dec 05 22:15:43 PST 2017"], "AssignmentId": ["3WRFBPLXRAO9TSQF3G4WUV0WCUTN38"], "WorkerId": ["CE30"], "Configs": {"sortAreaHeight": 683.1, "stagingAreaHeight": 136.62, "stimHeight": 57.52421052631579, "stimWidth": 89.73776842105264, "innerWidth": 1536, "sortAreaWidth": 614.4000000000001, "innerHeight": 759, "categoryBoxHeights": 546.48, "categoryBoxWidths": 307.20000000000005}, "HitTitle": ["Categorization study"]}, "Demographics": {"Gender": "Male", "Age": "18-29 years old", "Education": "high school graduate"}, "Data": [{"im7_reclassified": null, "im3_y": 72.5242, "im3_x": 413.764, "im7_colored_x": null, "im7_colored_y": null, "im7_src": "ims/im7.png", "im4_reclassified": null, "im1_y": 5, "im1_x": 110.899, "im1_region": "staging", "im3_region": "staging", "im5_region": "staging", "im3_colored_x": null, "im3_colored_y": null, "im7_y": 5, "im7_x": 413.764, "im6_reclassified": null, "im4_y": 72.5242, "im4_colored_src": null, "im4_colored_region": null, "im7_colored_reclassified": null, "any_reclassifications": null, "im0_colored_src": null, "im0_colored_y": null, "im0_colored_x": null, "im3_colored_reclassified": null, "num_ambiguous_placements": 0, "im1_reclassified": null, "im2_reclassified": null, "im0_region": "staging", "im2_region": "staging", "im2_x": 211.854, "im2_y": 72.5242, "im5_y": 5, "im5_x": 312.809, "im4_src": "ims/im4.png", "rt": null, "im0_x": 211.854, "im0_y": 5, "im5_colored_reclassified": null, "im6_colored_reclassified": null, "im6_x": 312.809, "im6_y": 72.5242, "im3_colored_src": null, "im0_colored_region": null, "im2_colored_reclassified": null, "im1_src": "ims/im1.png", "im4_colored_y": null, "im4_colored_x": null, "im2_colored_y": null, "im2_colored_x": null, "trial": "starting_config", "im5_colored_region": null, "im5_reclassified": null, "im4_x": 110.899, "im5_src": "ims/im5.png", "im6_colored_y": null, "im6_colored_x": null, "im0_colored_reclassified": null, "im2_src": "ims/im2.png", "im4_colored_reclassified": null, "im5_colored_src": null, "im2_colored_region": null, "im1_colored_reclassified": null, "im3_src": "ims/im3.png", "im7_colored_src": null, "im6_colored_region": null, "im5_colored_x": null, "im5_colored_y": null, "im1_colored_x": null, "reinforcement": null, "im1_colored_y": null, "im6_region": "staging", "im1_colored_src": null, "im0_src": "ims/im0.png", "example_true_category": null, "im7_colored_region": null, "im3_colored_region": null, "im2_colored_src": null, "total_reclassifications": null, "im3_reclassified": null, "im0_reclassified": null, "im7_region": "staging", "im6_colored_src": null, "im1_colored_region": null, "im6_src": "ims/im6.png", "im4_region": "staging"}, {"im7_reclassified": true, "im3_y": 407, "im3_x": 128, "im7_colored_x": null, "im7_colored_y": null, "im7_src": "ims/im7.png", "im4_reclassified": true, "im1_y": 219, "im1_x": 123, "im1_region": "pink", "im3_region": "pink", "im5_region": "blue", "im3_colored_x": null, "im3_colored_y": null, "im7_y": 488, "im7_x": 127, "im6_reclassified": true, "im4_y": 320, "im4_colored_src": null, "im4_colored_region": null, "im7_colored_reclassified": null, "any_reclassifications": true, "im0_colored_src": null, "im0_colored_y": null, "im0_colored_x": null, "im3_colored_reclassified": null, "num_ambiguous_placements": 0, "im1_reclassified": true, "im2_reclassified": true, "im0_region": "blue", "im2_region": "blue", "im2_x": 416, "im2_y": 198, "im5_y": 351, "im5_x": 373, "im4_src": "ims/im4.png", "rt": 25230, "im0_x": 377, "im0_y": 491, "im5_colored_reclassified": null, "im6_colored_reclassified": null, "im6_x": 377, "im6_y": 289, "im3_colored_src": null, "im0_colored_region": null, "im2_colored_reclassified": null, "im1_src": "ims/im1.png", "im4_colored_y": null, "im4_colored_x": null, "im2_colored_y": null, "im2_colored_x": null, "trial": "initial_classification", "im5_colored_region": null, "im5_reclassified": true, "im4_x": 97, "im5_src": "ims/im5.png", "im6_colored_y": null, "im6_colored_x": null, "im0_colored_reclassified": null, "im2_src": "ims/im2.png", "im4_colored_reclassified": null, "im5_colored_src": null, "im2_colored_region": null, "im1_colored_reclassified": null, "im3_src": "ims/im3.png", "im7_colored_src": null, "im6_colored_region": null, "im5_colored_x": null, "im5_colored_y": null, "im1_colored_x": null, "reinforcement": null, "im1_colored_y": null, "im6_region": "blue", "im1_colored_src": null, "im0_src": "ims/im0.png", "example_true_category": null, "im7_colored_region": null, "im3_colored_region": null, "im2_colored_src": null, "total_reclassifications": 8, "im3_reclassified": true, "im0_reclassified": true, "im7_region": "pink", "im6_colored_src": null, "im1_colored_region": null, "im6_src": "ims/im6.png", "im4_region": "pink"}, {"im7_reclassified": false, "im3_y": 407, "im3_x": 128, "im7_colored_x": null, "im7_colored_y": null, "im7_src": "ims/im7.png", "im4_reclassified": false, "im1_y": 219, "im1_x": 123, "im1_region": "pink", "im3_region": "pink", "im5_region": "blue", "im3_colored_x": null, "im3_colored_y": null, "im7_y": 488, "im7_x": 127, "im6_reclassified": false, "im5_src": "ims/im5.png", "im4_colored_src": null, "im4_colored_region": null, "im7_colored_reclassified": null, "any_reclassifications": false, "im0_colored_src": "ims/im0_colored.png", "im0_colored_y": 0, "im0_colored_x": 262.331, "im3_colored_reclassified": null, "num_ambiguous_placements": 0, "im1_reclassified": false, "im2_reclassified": false, "im0_region": null, "im2_region": "blue", "im2_x": 416, "im2_y": 198, "im5_y": 351, "im5_x": 373, "im4_src": "ims/im4.png", "rt": 9285, "im7_region": "pink", "im0_y": null, "im5_colored_reclassified": null, "im6_colored_reclassified": null, "im6_x": 377, "im6_y": 289, "im3_colored_src": null, "im0_colored_region": "staging", "im2_colored_reclassified": null, "im1_src": "ims/im1.png", "im4_colored_y": null, "im4_colored_x": null, "im2_colored_y": null, "im2_colored_x": null, "trial": 0, "im5_colored_region": null, "im5_reclassified": false, "im4_x": 97, "im4_y": 320, "im6_colored_y": null, "im6_colored_x": null, "im0_colored_reclassified": null, "im2_src": "ims/im2.png", "im4_colored_reclassified": null, "im5_colored_src": null, "im2_colored_region": null, "im1_colored_reclassified": null, "im3_src": "ims/im3.png", "im7_colored_src": null, "im6_colored_region": null, "im5_colored_x": null, "im5_colored_y": null, "im1_colored_x": null, "reinforcement": "positive", "im1_colored_y": null, "im6_region": "blue", "im1_colored_src": null, "im0_src": null, "example_true_category": "blue", "im7_colored_region": null, "im3_colored_region": null, "im2_colored_src": null, "total_reclassifications": 0, "im3_reclassified": false, "im0_reclassified": null, "im0_x": null, "im6_colored_src": null, "im1_colored_region": null, "im6_src": "ims/im6.png", "im4_region": "pink"}, {"im7_reclassified": false, "im3_y": 407, "im3_x": 128, "im7_colored_x": null, "im7_colored_y": null, "im7_src": "ims/im7.png", "im4_reclassified": false, "im1_y": null, "im1_x": null, "im1_region": null, "im3_region": "pink", "im5_region": "blue", "im3_colored_x": null, "im3_colored_y": null, "im7_y": 488, "im7_x": 127, "im6_reclassified": false, "im5_src": "ims/im5.png", "im4_colored_src": null, "im4_colored_region": null, "im7_colored_reclassified": null, "any_reclassifications": false, "im0_colored_src": "ims/im0_colored.png", "im0_colored_y": 0, "im0_colored_x": 262.331, "im3_colored_reclassified": null, "num_ambiguous_placements": 0, "im1_reclassified": null, "im2_reclassified": false, "im0_region": null, "im2_region": "blue", "im2_x": 416, "im2_y": 198, "im5_y": 351, "im5_x": 373, "im4_src": "ims/im4.png", "rt": 4039, "im7_region": "pink", "im0_y": null, "im5_colored_reclassified": null, "im6_colored_reclassified": null, "im6_x": 377, "im6_y": 289, "im3_colored_src": null, "im0_colored_region": "staging", "im2_colored_reclassified": null, "im1_src": null, "im4_colored_y": null, "im4_colored_x": null, "im2_colored_y": null, "im2_colored_x": null, "trial": 1, "im5_colored_region": null, "im5_reclassified": false, "im4_x": 97, "im4_y": 320, "im6_colored_y": null, "im6_colored_x": null, "im0_colored_reclassified": false, "im2_src": "ims/im2.png", "im4_colored_reclassified": null, "im5_colored_src": null, "im2_colored_region": null, "im1_colored_reclassified": null, "im3_src": "ims/im3.png", "im7_colored_src": null, "im6_colored_region": null, "im5_colored_x": null, "im5_colored_y": null, "im1_colored_x": 262.331, "reinforcement": "positive", "im1_colored_y": 0, "im6_region": "blue", "im1_colored_src": "ims/im1_colored.png", "im0_src": null, "example_true_category": "pink", "im7_colored_region": null, "im3_colored_region": null, "im2_colored_src": null, "total_reclassifications": 0, "im3_reclassified": false, "im0_reclassified": null, "im0_x": null, "im6_colored_src": null, "im1_colored_region": "staging", "im6_src": "ims/im6.png", "im4_region": "pink"}, {"im7_reclassified": false, "im3_y": 407, "im3_x": 128, "im7_colored_x": null, "im7_colored_y": null, "im7_src": "ims/im7.png", "im4_reclassified": false, "im1_y": null, "im1_x": null, "im1_region": null, "im3_region": "pink", "im5_region": "blue", "im3_colored_x": null, "im3_colored_y": null, "im7_y": 488, "im7_x": 127, "im6_reclassified": false, "im5_src": "ims/im5.png", "im4_colored_src": null, "im4_colored_region": null, "im7_colored_reclassified": null, "any_reclassifications": false, "im0_colored_src": "ims/im0_colored.png", "im0_colored_y": 0, "im0_colored_x": 262.331, "im3_colored_reclassified": null, "num_ambiguous_placements": 0, "im1_reclassified": null, "im2_reclassified": null, "im0_region": null, "im2_region": null, "im2_x": null, "im2_y": null, "im5_y": 351, "im5_x": 373, "im4_src": "ims/im4.png", "rt": 5825, "im7_region": "pink", "im0_y": null, "im5_colored_reclassified": null, "im6_colored_reclassified": null, "im6_x": 377, "im6_y": 289, "im3_colored_src": null, "im0_colored_region": "staging", "im2_colored_reclassified": null, "im1_src": null, "im4_colored_y": null, "im4_colored_x": null, "im2_colored_y": 0, "im2_colored_x": 262.331, "trial": 2, "im5_colored_region": null, "im5_reclassified": false, "im4_x": 97, "im4_y": 320, "im6_colored_y": null, "im6_colored_x": null, "im0_colored_reclassified": false, "im2_src": null, "im4_colored_reclassified": null, "im5_colored_src": null, "im2_colored_region": "staging", "im1_colored_reclassified": false, "im3_src": "ims/im3.png", "im7_colored_src": null, "im6_colored_region": null, "im5_colored_x": null, "im5_colored_y": null, "im1_colored_x": 262.331, "reinforcement": "negative", "im1_colored_y": 0, "im6_region": "blue", "im1_colored_src": "ims/im1_colored.png", "im0_src": null, "example_true_category": "pink", "im7_colored_region": null, "im3_colored_region": null, "im2_colored_src": "ims/im2_colored.png", "total_reclassifications": 0, "im3_reclassified": false, "im0_reclassified": null, "im0_x": null, "im6_colored_src": null, "im1_colored_region": "staging", "im6_src": "ims/im6.png", "im4_region": "pink"}, {"im7_reclassified": false, "im3_y": null, "im3_x": null, "im7_colored_x": null, "im7_colored_y": null, "im7_src": "ims/im7.png", "im4_reclassified": false, "im1_y": null, "im1_x": null, "im1_region": null, "im3_region": null, "im5_region": "blue", "im3_colored_x": 162.255, "im3_colored_y": 303.213, "im7_y": 488, "im7_x": 127, "im6_reclassified": false, "im5_src": "ims/im5.png", "im4_colored_src": null, "im4_colored_region": null, "im7_colored_reclassified": null, "any_reclassifications": false, "im0_colored_src": "ims/im0_colored.png", "im0_colored_y": 0, "im0_colored_x": 262.331, "im3_colored_reclassified": null, "num_ambiguous_placements": 0, "im1_reclassified": null, "im2_reclassified": null, "im0_region": null, "im2_region": null, "im2_x": null, "im2_y": null, "im5_y": 351, "im5_x": 373, "im4_src": "ims/im4.png", "rt": 2848, "im7_region": "pink", "im0_y": null, "im5_colored_reclassified": null, "im6_colored_reclassified": null, "im6_x": 377, "im6_y": 289, "im3_colored_src": "ims/im3_colored.png", "im0_colored_region": "staging", "im2_colored_reclassified": false, "im1_src": null, "im4_colored_y": null, "im4_colored_x": null, "im2_colored_y": 0, "im2_colored_x": 262.331, "trial": 3, "im5_colored_region": null, "im5_reclassified": false, "im4_x": 97, "im4_y": 320, "im6_colored_y": null, "im6_colored_x": null, "im0_colored_reclassified": false, "im2_src": null, "im4_colored_reclassified": null, "im5_colored_src": null, "im2_colored_region": "staging", "im1_colored_reclassified": false, "im3_src": null, "im7_colored_src": null, "im6_colored_region": null, "im5_colored_x": null, "im5_colored_y": null, "im1_colored_x": 262.331, "reinforcement": "negative", "im1_colored_y": 0, "im6_region": "blue", "im1_colored_src": "ims/im1_colored.png", "im0_src": null, "example_true_category": "blue", "im7_colored_region": null, "im3_colored_region": "pink", "im2_colored_src": "ims/im2_colored.png", "total_reclassifications": 0, "im3_reclassified": null, "im0_reclassified": null, "im0_x": null, "im6_colored_src": null, "im1_colored_region": "staging", "im6_src": "ims/im6.png", "im4_region": "pink"}, {"im7_reclassified": false, "im3_y": null, "im3_x": null, "im7_colored_x": null, "im7_colored_y": null, "im7_src": "ims/im7.png", "im4_reclassified": null, "im1_y": null, "im1_x": null, "im1_region": null, "im3_region": null, "im5_region": "blue", "im3_colored_x": 162.255, "im3_colored_y": 303.213, "im7_y": 488, "im7_x": 127, "im6_reclassified": false, "im4_y": null, "im4_colored_src": "ims/im4_colored.png", "im4_colored_region": "staging", "im7_colored_reclassified": null, "any_reclassifications": false, "im0_colored_src": "ims/im0_colored.png", "im0_colored_y": 0, "im0_colored_x": 262.331, "im3_colored_reclassified": false, "num_ambiguous_placements": 0, "im1_reclassified": null, "im2_reclassified": null, "im0_region": null, "im2_region": null, "im2_x": null, "im2_y": null, "im5_y": 351, "im5_x": 373, "im4_src": null, "rt": 5103, "im7_region": "pink", "im0_y": null, "im5_colored_reclassified": null, "im6_colored_reclassified": null, "im6_x": 377, "im6_y": 289, "im3_colored_src": "ims/im3_colored.png", "im0_colored_region": "staging", "im2_colored_reclassified": false, "im1_src": null, "im4_colored_y": 0, "im4_colored_x": 262.331, "im2_colored_y": 0, "im2_colored_x": 262.331, "trial": 4, "im5_colored_region": null, "im5_reclassified": false, "im4_x": null, "im5_src": "ims/im5.png", "im6_colored_y": null, "im6_colored_x": null, "im0_colored_reclassified": false, "im2_src": null, "im4_colored_reclassified": null, "im5_colored_src": null, "im2_colored_region": "staging", "im1_colored_reclassified": false, "im3_src": null, "im7_colored_src": null, "im6_colored_region": null, "im5_colored_x": null, "im5_colored_y": null, "im1_colored_x": 262.331, "reinforcement": "positive", "im1_colored_y": 0, "im6_region": "blue", "im1_colored_src": "ims/im1_colored.png", "im0_src": null, "example_true_category": "pink", "im7_colored_region": null, "im3_colored_region": "pink", "im2_colored_src": "ims/im2_colored.png", "total_reclassifications": 0, "im3_reclassified": null, "im0_reclassified": null, "im0_x": null, "im6_colored_src": null, "im1_colored_region": "staging", "im6_src": "ims/im6.png", "im4_region": null}, {"im7_reclassified": false, "im3_y": null, "im3_x": null, "im7_colored_x": null, "im7_colored_y": null, "im7_src": "ims/im7.png", "im4_reclassified": null, "im1_y": null, "im1_x": null, "im1_region": null, "im3_region": null, "im5_region": null, "im3_colored_x": 162.255, "im3_colored_y": 303.213, "im7_y": 488, "im7_x": 127, "im6_reclassified": false, "im5_src": null, "im4_colored_src": "ims/im4_colored.png", "im4_colored_region": "staging", "im7_colored_reclassified": null, "any_reclassifications": false, "im0_colored_src": "ims/im0_colored.png", "im0_colored_y": 0, "im0_colored_x": 262.331, "im3_colored_reclassified": false, "num_ambiguous_placements": 0, "im1_reclassified": null, "im2_reclassified": null, "im0_region": null, "im2_region": null, "im2_x": null, "im2_y": null, "im5_y": null, "im5_x": null, "im4_src": null, "rt": 4299, "im7_region": "pink", "im0_y": null, "im5_colored_reclassified": null, "im6_colored_reclassified": null, "im6_x": 377, "im6_y": 289, "im3_colored_src": "ims/im3_colored.png", "im0_colored_region": "staging", "im2_colored_reclassified": false, "im1_src": null, "im4_colored_y": 0, "im4_colored_x": 262.331, "im2_colored_y": 0, "im2_colored_x": 262.331, "trial": 5, "im5_colored_region": "staging", "im5_colored_src": "ims/im5_colored.png", "im4_x": null, "im4_y": null, "im6_colored_y": null, "im6_colored_x": null, "im0_colored_reclassified": false, "im2_src": null, "im4_colored_reclassified": false, "im5_reclassified": null, "im2_colored_region": "staging", "im1_colored_reclassified": false, "im3_src": null, "im7_colored_src": null, "im6_colored_region": null, "im5_colored_x": 262.331, "im5_colored_y": 0, "im1_colored_x": 262.331, "reinforcement": "negative", "im1_colored_y": 0, "im6_region": "blue", "im1_colored_src": "ims/im1_colored.png", "im0_src": null, "example_true_category": "pink", "im7_colored_region": null, "im3_colored_region": "pink", "im2_colored_src": "ims/im2_colored.png", "total_reclassifications": 0, "im3_reclassified": null, "im0_reclassified": null, "im0_x": null, "im6_colored_src": null, "im1_colored_region": "staging", "im6_src": "ims/im6.png", "im4_region": null}, {"im7_reclassified": false, "im3_y": null, "im3_x": null, "im7_colored_x": null, "im7_colored_y": null, "im7_src": "ims/im7.png", "im4_reclassified": null, "im1_y": null, "im1_x": null, "im1_region": null, "im3_region": null, "im5_region": null, "im3_colored_x": 162.255, "im3_colored_y": 303.213, "im7_y": 488, "im7_x": 127, "im6_reclassified": null, "im4_y": null, "im4_colored_src": "ims/im4_colored.png", "im4_colored_region": "staging", "im7_colored_reclassified": null, "any_reclassifications": false, "im0_colored_src": "ims/im0_colored.png", "im0_colored_y": 0, "im0_colored_x": 262.331, "im3_colored_reclassified": false, "num_ambiguous_placements": 0, "im1_reclassified": null, "im2_reclassified": null, "im0_region": null, "im2_region": null, "im2_x": null, "im2_y": null, "im5_y": null, "im5_x": null, "im4_src": null, "rt": 4275, "im7_region": "pink", "im0_y": null, "im5_colored_reclassified": false, "im6_colored_reclassified": null, "im6_x": null, "im6_y": null, "im3_colored_src": "ims/im3_colored.png", "im0_colored_region": "staging", "im2_colored_reclassified": false, "im1_src": null, "im4_colored_y": 0, "im4_colored_x": 262.331, "im2_colored_y": 0, "im2_colored_x": 262.331, "trial": 6, "im5_colored_region": "staging", "im5_reclassified": null, "im4_x": null, "im6_colored_src": "ims/im6_colored.png", "im6_colored_y": 0, "im6_colored_x": 262.331, "im0_colored_reclassified": false, "im2_src": null, "im4_colored_reclassified": false, "im5_colored_src": "ims/im5_colored.png", "im2_colored_region": "staging", "im1_colored_reclassified": false, "im3_src": null, "im7_colored_src": null, "im6_colored_region": "staging", "im5_colored_x": 262.331, "im5_colored_y": 0, "im1_colored_x": 262.331, "reinforcement": "positive", "im1_colored_y": 0, "im6_region": null, "im1_colored_src": "ims/im1_colored.png", "im0_src": null, "example_true_category": "blue", "im7_colored_region": null, "im3_colored_region": "pink", "im5_src": null, "im2_colored_src": "ims/im2_colored.png", "total_reclassifications": 0, "im3_reclassified": null, "im0_reclassified": null, "im0_x": null, "im1_colored_region": "staging", "im6_src": null, "im4_region": null}, {"im7_reclassified": null, "im3_y": null, "im3_x": null, "im7_colored_x": 262.331, "im7_colored_y": 0, "im7_src": null, "im4_reclassified": null, "im1_y": null, "im1_x": null, "im1_region": null, "im3_region": null, "im5_region": null, "im3_colored_x": 162.255, "im3_colored_y": 303.213, "im7_y": null, "im7_x": null, "im6_reclassified": null, "im4_y": null, "im4_colored_src": "ims/im4_colored.png", "im4_colored_region": "staging", "im7_colored_reclassified": null, "any_reclassifications": false, "im0_colored_src": "ims/im0_colored.png", "im0_colored_y": 0, "im0_colored_x": 262.331, "im3_colored_reclassified": false, "num_ambiguous_placements": 0, "im1_reclassified": null, "im2_reclassified": null, "im0_region": null, "im2_region": null, "im2_x": null, "im2_y": null, "im5_y": null, "im5_x": null, "im4_src": null, "rt": 3655, "im7_region": null, "im0_y": null, "im5_colored_reclassified": false, "im6_colored_reclassified": false, "im6_x": null, "im6_y": null, "im3_colored_src": "ims/im3_colored.png", "im0_colored_region": "staging", "im2_colored_reclassified": false, "im1_src": null, "im4_colored_y": 0, "im4_colored_x": 262.331, "im2_colored_y": 0, "im2_colored_x": 262.331, "trial": 7, "im5_colored_region": "staging", "im5_reclassified": null, "im4_x": null, "im6_colored_src": "ims/im6_colored.png", "im6_colored_y": 0, "im6_colored_x": 262.331, "im0_colored_reclassified": false, "im2_src": null, "im4_colored_reclassified": false, "im5_colored_src": "ims/im5_colored.png", "im2_colored_region": "staging", "im1_colored_reclassified": false, "im3_src": null, "im7_colored_src": "ims/im7_colored.png", "im6_colored_region": "staging", "im5_colored_x": 262.331, "im5_colored_y": 0, "im1_colored_x": 262.331, "reinforcement": "negative", "im1_colored_y": 0, "im6_region": null, "im1_colored_src": "ims/im1_colored.png", "im0_src": null, "example_true_category": "blue", "im7_colored_region": "staging", "im3_colored_region": "pink", "im5_src": null, "im2_colored_src": "ims/im2_colored.png", "total_reclassifications": 0, "im3_reclassified": null, "im0_reclassified": null, "im0_x": null, "im1_colored_region": "staging", "im6_src": null, "im4_region": null}], "ProblemReport": {"rt": 6327, "trial_type": "survey-text", "responses": {"Q0": "No issues"}, "internal_node_id": "0.0-3.0", "time_elapsed": 102101, "trial_index": 3}}