{"HITInfo": {"Status": ["Approved"], "AcceptTime": ["Tue Dec 05 22:31:33 PST 2017"], "HitId": ["3ZUE82NE0A1GJDLBR6BEON39KOIF8D"], "SubmitTime": ["Tue Dec 05 23:12:00 PST 2017"], "AssignmentId": ["37M28K1J0QDDUNYFXXREOWXL9M8AJJ"], "WorkerId": ["CE33"], "Configs": {"sortAreaHeight": 888.3000000000001, "stagingAreaHeight": 177.66000000000003, "stimHeight": 74.8042105263158, "stimWidth": 116.69456842105265, "innerWidth": 1920, "sortAreaWidth": 768, "innerHeight": 987, "categoryBoxHeights": 710.6400000000001, "categoryBoxWidths": 384}, "HitTitle": ["Categorization study"]}, "Demographics": {"Gender": "Male", "Age": "18-29 years old", "Education": "college graduate"}, "Data": [{"im7_reclassified": null, "im3_y": 89.8042, "im3_x": 391.293, "im7_colored_x": null, "im7_colored_y": null, "im7_src": "ims/im7.png", "im4_reclassified": null, "im1_y": 89.8042, "im1_x": 128.731, "im1_region": "staging", "im3_region": "staging", "im5_region": "staging", "im3_colored_x": null, "im3_colored_y": null, "im7_y": 89.8042, "im7_x": 522.575, "im6_reclassified": null, "im4_y": 89.8042, "im4_colored_src": null, "im4_colored_region": null, "im7_colored_reclassified": null, "any_reclassifications": null, "im0_colored_src": null, "im0_colored_y": null, "im0_colored_x": null, "im3_colored_reclassified": null, "num_ambiguous_placements": 0, "im1_reclassified": null, "im2_reclassified": null, "im0_region": "staging", "im2_region": "staging", "im2_x": 391.293, "im2_y": 5, "im5_y": 5, "im5_x": 128.731, "im4_src": "ims/im4.png", "rt": null, "im0_x": 260.012, "im0_y": 5, "im5_colored_reclassified": null, "im6_colored_reclassified": null, "im6_x": 522.575, "im6_y": 5, "im3_colored_src": null, "im0_colored_region": null, "im2_colored_reclassified": null, "im1_src": "ims/im1.png", "im4_colored_y": null, "im4_colored_x": null, "im2_colored_y": null, "im2_colored_x": null, "trial": "starting_config", "im5_colored_region": null, "im5_reclassified": null, "im4_x": 260.012, "im5_src": "ims/im5.png", "im6_colored_y": null, "im6_colored_x": null, "im0_colored_reclassified": null, "im2_src": "ims/im2.png", "im4_colored_reclassified": null, "im5_colored_src": null, "im2_colored_region": null, "im1_colored_reclassified": null, "im3_src": "ims/im3.png", "im7_colored_src": null, "im6_colored_region": null, "im5_colored_x": null, "im5_colored_y": null, "im1_colored_x": null, "reinforcement": null, "im1_colored_y": null, "im6_region": "staging", "im1_colored_src": null, "im0_src": "ims/im0.png", "example_true_category": null, "im7_colored_region": null, "im3_colored_region": null, "im2_colored_src": null, "total_reclassifications": null, "im3_reclassified": null, "im0_reclassified": null, "im7_region": "staging", "im6_colored_src": null, "im1_colored_region": null, "im6_src": "ims/im6.png", "im4_region": "staging"}, {"im7_reclassified": true, "im3_y": 413, "im3_x": 142, "im7_colored_x": null, "im7_colored_y": null, "im7_src": "ims/im7.png", "im4_reclassified": true, "im1_y": 210, "im1_x": 151, "im1_region": "pink", "im3_region": "pink", "im5_region": "pink", "im3_colored_x": null, "im3_colored_y": null, "im7_y": 397, "im7_x": 76, "im6_reclassified": true, "im4_y": 274, "im4_colored_src": null, "im4_colored_region": null, "im7_colored_reclassified": null, "any_reclassifications": true, "im0_colored_src": null, "im0_colored_y": null, "im0_colored_x": null, "im3_colored_reclassified": null, "num_ambiguous_placements": 0, "im1_reclassified": true, "im2_reclassified": true, "im0_region": "blue", "im2_region": "blue", "im2_x": 520, "im2_y": 334, "im5_y": 323, "im5_x": 187, "im4_src": "ims/im4.png", "rt": 11135, "im0_x": 461, "im0_y": 352, "im5_colored_reclassified": null, "im6_colored_reclassified": null, "im6_x": 513, "im6_y": 385, "im3_colored_src": null, "im0_colored_region": null, "im2_colored_reclassified": null, "im1_src": "ims/im1.png", "im4_colored_y": null, "im4_colored_x": null, "im2_colored_y": null, "im2_colored_x": null, "trial": "initial_classification", "im5_colored_region": null, "im5_reclassified": true, "im4_x": 551, "im5_src": "ims/im5.png", "im6_colored_y": null, "im6_colored_x": null, "im0_colored_reclassified": null, "im2_src": "ims/im2.png", "im4_colored_reclassified": null, "im5_colored_src": null, "im2_colored_region": null, "im1_colored_reclassified": null, "im3_src": "ims/im3.png", "im7_colored_src": null, "im6_colored_region": null, "im5_colored_x": null, "im5_colored_y": null, "im1_colored_x": null, "reinforcement": null, "im1_colored_y": null, "im6_region": "blue", "im1_colored_src": null, "im0_src": "ims/im0.png", "example_true_category": null, "im7_colored_region": null, "im3_colored_region": null, "im2_colored_src": null, "total_reclassifications": 8, "im3_reclassified": true, "im0_reclassified": true, "im7_region": "pink", "im6_colored_src": null, "im1_colored_region": null, "im6_src": "ims/im6.png", "im4_region": "blue"}, {"im7_reclassified": false, "im3_y": 413, "im3_x": 142, "im7_colored_x": null, "im7_colored_y": null, "im7_src": "ims/im7.png", "im4_reclassified": false, "im1_y": 210, "im1_x": 151, "im1_region": "pink", "im3_region": "pink", "im5_region": "pink", "im3_colored_x": null, "im3_colored_y": null, "im7_y": 397, "im7_x": 76, "im6_reclassified": false, "im4_y": 274, "im4_colored_src": null, "im4_colored_region": null, "im7_colored_reclassified": null, "any_reclassifications": false, "im0_colored_src": "ims/im0_colored.png", "im0_colored_y": 387, "im0_colored_x": 520, "im3_colored_reclassified": null, "num_ambiguous_placements": 0, "im1_reclassified": false, "im2_reclassified": false, "im0_region": null, "im2_region": "blue", "im2_x": 520, "im2_y": 334, "im5_y": 323, "im5_x": 187, "im4_src": "ims/im4.png", "rt": 10263, "im7_region": "pink", "im0_y": null, "im5_colored_reclassified": null, "im6_colored_reclassified": null, "im6_x": 513, "im6_y": 385, "im3_colored_src": null, "im0_colored_region": "blue", "im2_colored_reclassified": null, "im1_src": "ims/im1.png", "im4_colored_y": null, "im4_colored_x": null, "im2_colored_y": null, "im2_colored_x": null, "trial": 0, "im5_colored_region": null, "im5_reclassified": false, "im4_x": 551, "im5_src": "ims/im5.png", "im6_colored_y": null, "im6_colored_x": null, "im0_colored_reclassified": null, "im2_src": "ims/im2.png", "im4_colored_reclassified": null, "im5_colored_src": null, "im2_colored_region": null, "im1_colored_reclassified": null, "im3_src": "ims/im3.png", "im7_colored_src": null, "im6_colored_region": null, "im5_colored_x": null, "im5_colored_y": null, "im1_colored_x": null, "reinforcement": "positive", "im1_colored_y": null, "im6_region": "blue", "im1_colored_src": null, "im0_src": null, "example_true_category": "blue", "im7_colored_region": null, "im3_colored_region": null, "im2_colored_src": null, "total_reclassifications": 0, "im3_reclassified": false, "im0_reclassified": null, "im0_x": null, "im6_colored_src": null, "im1_colored_region": null, "im6_src": "ims/im6.png", "im4_region": "blue"}, {"im7_reclassified": false, "im3_y": 413, "im3_x": 142, "im7_colored_x": null, "im7_colored_y": null, "im7_src": "ims/im7.png", "im4_reclassified": false, "im1_y": null, "im1_x": null, "im1_region": null, "im3_region": "pink", "im5_region": "pink", "im3_colored_x": null, "im3_colored_y": null, "im7_y": 397, "im7_x": 76, "im6_reclassified": false, "im5_src": "ims/im5.png", "im4_colored_src": null, "im4_colored_region": null, "im7_colored_reclassified": null, "any_reclassifications": false, "im0_colored_src": "ims/im0_colored.png", "im0_colored_y": 387, "im0_colored_x": 520, "im3_colored_reclassified": null, "num_ambiguous_placements": 0, "im1_reclassified": null, "im2_reclassified": false, "im0_region": null, "im2_region": "blue", "im2_x": 520, "im2_y": 334, "im5_y": 323, "im5_x": 187, "im4_src": "ims/im4.png", "rt": 4735, "im7_region": "pink", "im0_y": null, "im5_colored_reclassified": null, "im6_colored_reclassified": null, "im6_x": 513, "im6_y": 385, "im3_colored_src": null, "im0_colored_region": "blue", "im2_colored_reclassified": null, "im1_src": null, "im4_colored_y": null, "im4_colored_x": null, "im2_colored_y": null, "im2_colored_x": null, "trial": 1, "im5_colored_region": null, "im5_reclassified": false, "im4_x": 551, "im4_y": 274, "im6_colored_y": null, "im6_colored_x": null, "im0_colored_reclassified": false, "im2_src": "ims/im2.png", "im4_colored_reclassified": null, "im5_colored_src": null, "im2_colored_region": null, "im1_colored_reclassified": null, "im3_src": "ims/im3.png", "im7_colored_src": null, "im6_colored_region": null, "im5_colored_x": null, "im5_colored_y": null, "im1_colored_x": 191, "reinforcement": "positive", "im1_colored_y": 324, "im6_region": "blue", "im1_colored_src": "ims/im1_colored.png", "im0_src": null, "example_true_category": "pink", "im7_colored_region": null, "im3_colored_region": null, "im2_colored_src": null, "total_reclassifications": 0, "im3_reclassified": false, "im0_reclassified": null, "im0_x": null, "im6_colored_src": null, "im1_colored_region": "pink", "im6_src": "ims/im6.png", "im4_region": "blue"}, {"im7_reclassified": false, "im3_y": 413, "im3_x": 142, "im7_colored_x": null, "im7_colored_y": null, "im7_src": "ims/im7.png", "im4_reclassified": false, "im1_y": null, "im1_x": null, "im1_region": null, "im3_region": "pink", "im5_region": "pink", "im3_colored_x": null, "im3_colored_y": null, "im7_y": 397, "im7_x": 76, "im6_reclassified": false, "im5_src": "ims/im5.png", "im4_colored_src": null, "im4_colored_region": null, "im7_colored_reclassified": null, "any_reclassifications": false, "im0_colored_src": "ims/im0_colored.png", "im0_colored_y": 387, "im0_colored_x": 520, "im3_colored_reclassified": null, "num_ambiguous_placements": 0, "im1_reclassified": null, "im2_reclassified": null, "im0_region": null, "im2_region": null, "im2_x": null, "im2_y": null, "im5_y": 323, "im5_x": 187, "im4_src": "ims/im4.png", "rt": 6566, "im7_region": "pink", "im0_y": null, "im5_colored_reclassified": null, "im6_colored_reclassified": null, "im6_x": 513, "im6_y": 385, "im3_colored_src": null, "im0_colored_region": "blue", "im2_colored_reclassified": null, "im1_src": null, "im4_colored_y": null, "im4_colored_x": null, "im2_colored_y": 283, "im2_colored_x": 112, "trial": 2, "im5_colored_region": null, "im5_reclassified": false, "im4_x": 551, "im4_y": 274, "im6_colored_y": null, "im6_colored_x": null, "im0_colored_reclassified": false, "im2_src": null, "im4_colored_reclassified": null, "im5_colored_src": null, "im2_colored_region": "pink", "im1_colored_reclassified": false, "im3_src": "ims/im3.png", "im7_colored_src": null, "im6_colored_region": null, "im5_colored_x": null, "im5_colored_y": null, "im1_colored_x": 191, "reinforcement": "negative", "im1_colored_y": 324, "im6_region": "blue", "im1_colored_src": "ims/im1_colored.png", "im0_src": null, "example_true_category": "pink", "im7_colored_region": null, "im3_colored_region": null, "im2_colored_src": "ims/im2_colored.png", "total_reclassifications": 0, "im3_reclassified": false, "im0_reclassified": null, "im0_x": null, "im6_colored_src": null, "im1_colored_region": "pink", "im6_src": "ims/im6.png", "im4_region": "blue"}, {"im7_reclassified": false, "im3_y": null, "im3_x": null, "im7_colored_x": null, "im7_colored_y": null, "im7_src": "ims/im7.png", "im4_reclassified": false, "im1_y": null, "im1_x": null, "im1_region": null, "im3_region": null, "im5_region": "pink", "im3_colored_x": 509, "im3_colored_y": 298, "im7_y": 397, "im7_x": 76, "im6_reclassified": false, "im5_src": "ims/im5.png", "im4_colored_src": null, "im4_colored_region": null, "im7_colored_reclassified": null, "any_reclassifications": false, "im0_colored_src": "ims/im0_colored.png", "im0_colored_y": 387, "im0_colored_x": 520, "im3_colored_reclassified": null, "num_ambiguous_placements": 0, "im1_reclassified": null, "im2_reclassified": null, "im0_region": null, "im2_region": null, "im2_x": null, "im2_y": null, "im5_y": 323, "im5_x": 187, "im4_src": "ims/im4.png", "rt": 4572, "im7_region": "pink", "im0_y": null, "im5_colored_reclassified": null, "im6_colored_reclassified": null, "im6_x": 513, "im6_y": 385, "im3_colored_src": "ims/im3_colored.png", "im0_colored_region": "blue", "im2_colored_reclassified": false, "im1_src": null, "im4_colored_y": null, "im4_colored_x": null, "im2_colored_y": 283, "im2_colored_x": 112, "trial": 3, "im5_colored_region": null, "im5_reclassified": false, "im4_x": 551, "im4_y": 274, "im6_colored_y": null, "im6_colored_x": null, "im0_colored_reclassified": false, "im2_src": null, "im4_colored_reclassified": null, "im5_colored_src": null, "im2_colored_region": "pink", "im1_colored_reclassified": false, "im3_src": null, "im7_colored_src": null, "im6_colored_region": null, "im5_colored_x": null, "im5_colored_y": null, "im1_colored_x": 191, "reinforcement": "negative", "im1_colored_y": 324, "im6_region": "blue", "im1_colored_src": "ims/im1_colored.png", "im0_src": null, "example_true_category": "blue", "im7_colored_region": null, "im3_colored_region": "blue", "im2_colored_src": "ims/im2_colored.png", "total_reclassifications": 0, "im3_reclassified": null, "im0_reclassified": null, "im0_x": null, "im6_colored_src": null, "im1_colored_region": "pink", "im6_src": "ims/im6.png", "im4_region": "blue"}, {"im7_reclassified": false, "im3_y": null, "im3_x": null, "im7_colored_x": null, "im7_colored_y": null, "im7_src": "ims/im7.png", "im4_reclassified": null, "im1_y": null, "im1_x": null, "im1_region": null, "im3_region": null, "im5_region": "pink", "im3_colored_x": 509, "im3_colored_y": 298, "im7_y": 397, "im7_x": 76, "im6_reclassified": false, "im4_y": null, "im4_colored_src": "ims/im4_colored.png", "im4_colored_region": "pink", "im7_colored_reclassified": null, "any_reclassifications": false, "im0_colored_src": "ims/im0_colored.png", "im0_colored_y": 387, "im0_colored_x": 520, "im3_colored_reclassified": false, "num_ambiguous_placements": 0, "im1_reclassified": null, "im2_reclassified": null, "im0_region": null, "im2_region": null, "im2_x": null, "im2_y": null, "im5_y": 323, "im5_x": 187, "im4_src": null, "rt": 2230, "im7_region": "pink", "im0_y": null, "im5_colored_reclassified": null, "im6_colored_reclassified": null, "im6_x": 513, "im6_y": 385, "im3_colored_src": "ims/im3_colored.png", "im0_colored_region": "blue", "im2_colored_reclassified": false, "im1_src": null, "im4_colored_y": 252, "im4_colored_x": 134, "im2_colored_y": 283, "im2_colored_x": 112, "trial": 4, "im5_colored_region": null, "im5_reclassified": false, "im4_x": null, "im5_src": "ims/im5.png", "im6_colored_y": null, "im6_colored_x": null, "im0_colored_reclassified": false, "im2_src": null, "im4_colored_reclassified": null, "im5_colored_src": null, "im2_colored_region": "pink", "im1_colored_reclassified": false, "im3_src": null, "im7_colored_src": null, "im6_colored_region": null, "im5_colored_x": null, "im5_colored_y": null, "im1_colored_x": 191, "reinforcement": "negative", "im1_colored_y": 324, "im6_region": "blue", "im1_colored_src": "ims/im1_colored.png", "im0_src": null, "example_true_category": "pink", "im7_colored_region": null, "im3_colored_region": "blue", "im2_colored_src": "ims/im2_colored.png", "total_reclassifications": 0, "im3_reclassified": null, "im0_reclassified": null, "im0_x": null, "im6_colored_src": null, "im1_colored_region": "pink", "im6_src": "ims/im6.png", "im4_region": null}, {"im7_reclassified": false, "im3_y": null, "im3_x": null, "im7_colored_x": null, "im7_colored_y": null, "im7_src": "ims/im7.png", "im4_reclassified": null, "im1_y": null, "im1_x": null, "im1_region": null, "im3_region": null, "im5_region": null, "im3_colored_x": 509, "im3_colored_y": 298, "im7_y": 397, "im7_x": 76, "im6_reclassified": false, "im5_src": null, "im4_colored_src": "ims/im4_colored.png", "im4_colored_region": "pink", "im7_colored_reclassified": null, "any_reclassifications": false, "im0_colored_src": "ims/im0_colored.png", "im0_colored_y": 387, "im0_colored_x": 520, "im3_colored_reclassified": false, "num_ambiguous_placements": 0, "im1_reclassified": null, "im2_reclassified": null, "im0_region": null, "im2_region": null, "im2_x": null, "im2_y": null, "im5_y": null, "im5_x": null, "im4_src": null, "rt": 5907, "im7_region": "pink", "im0_y": null, "im5_colored_reclassified": null, "im6_colored_reclassified": null, "im6_x": 513, "im6_y": 385, "im3_colored_src": "ims/im3_colored.png", "im0_colored_region": "blue", "im2_colored_reclassified": false, "im1_src": null, "im4_colored_y": 252, "im4_colored_x": 134, "im2_colored_y": 697, "im2_colored_x": 17, "trial": 5, "im5_colored_region": "pink", "im5_colored_src": "ims/im5_colored.png", "im4_x": null, "im4_y": null, "im6_colored_y": null, "im6_colored_x": null, "im0_colored_reclassified": false, "im2_src": null, "im4_colored_reclassified": false, "im5_reclassified": null, "im2_colored_region": "pink", "im1_colored_reclassified": false, "im3_src": null, "im7_colored_src": null, "im6_colored_region": null, "im5_colored_x": 246, "im5_colored_y": 636, "im1_colored_x": 191, "reinforcement": "positive", "im1_colored_y": 324, "im6_region": "blue", "im1_colored_src": "ims/im1_colored.png", "im0_src": null, "example_true_category": "pink", "im7_colored_region": null, "im3_colored_region": "blue", "im2_colored_src": "ims/im2_colored.png", "total_reclassifications": 0, "im3_reclassified": null, "im0_reclassified": null, "im0_x": null, "im6_colored_src": null, "im1_colored_region": "pink", "im6_src": "ims/im6.png", "im4_region": null}, {"im7_reclassified": false, "im3_y": null, "im3_x": null, "im7_colored_x": null, "im7_colored_y": null, "im7_src": "ims/im7.png", "im4_reclassified": null, "im1_y": null, "im1_x": null, "im1_region": null, "im3_region": null, "im5_region": null, "im3_colored_x": 430, "im3_colored_y": 261, "im7_y": 397, "im7_x": 76, "im6_reclassified": null, "im4_y": null, "im4_colored_src": "ims/im4_colored.png", "im4_colored_region": "pink", "im7_colored_reclassified": null, "any_reclassifications": false, "im0_colored_src": "ims/im0_colored.png", "im0_colored_y": 387, "im0_colored_x": 520, "im3_colored_reclassified": false, "num_ambiguous_placements": 0, "im1_reclassified": null, "im2_reclassified": null, "im0_region": null, "im2_region": null, "im2_x": null, "im2_y": null, "im5_y": null, "im5_x": null, "im4_src": null, "rt": 5420, "im7_region": "pink", "im0_y": null, "im5_colored_reclassified": false, "im6_colored_reclassified": null, "im6_x": null, "im6_y": null, "im3_colored_src": "ims/im3_colored.png", "im0_colored_region": "blue", "im2_colored_reclassified": false, "im1_src": null, "im4_colored_y": 252, "im4_colored_x": 134, "im2_colored_y": 697, "im2_colored_x": 17, "trial": 6, "im5_colored_region": "pink", "im5_reclassified": null, "im4_x": null, "im6_colored_src": "ims/im6_colored.png", "im6_colored_y": 569, "im6_colored_x": 423, "im0_colored_reclassified": false, "im2_src": null, "im4_colored_reclassified": false, "im5_colored_src": "ims/im5_colored.png", "im2_colored_region": "pink", "im1_colored_reclassified": false, "im3_src": null, "im7_colored_src": null, "im6_colored_region": "blue", "im5_colored_x": 246, "im5_colored_y": 636, "im1_colored_x": 191, "reinforcement": "positive", "im1_colored_y": 324, "im6_region": null, "im1_colored_src": "ims/im1_colored.png", "im0_src": null, "example_true_category": "blue", "im7_colored_region": null, "im3_colored_region": "blue", "im5_src": null, "im2_colored_src": "ims/im2_colored.png", "total_reclassifications": 0, "im3_reclassified": null, "im0_reclassified": null, "im0_x": null, "im1_colored_region": "pink", "im6_src": null, "im4_region": null}, {"im7_reclassified": null, "im3_y": null, "im3_x": null, "im7_colored_x": 394.184, "im7_colored_y": 203.984, "im7_src": null, "im4_reclassified": null, "im1_y": null, "im1_x": null, "im1_region": null, "im3_region": null, "im5_region": null, "im3_colored_x": 430, "im3_colored_y": 261, "im7_y": null, "im7_x": null, "im6_reclassified": null, "im4_y": null, "im4_colored_src": "ims/im4_colored.png", "im4_colored_region": "pink", "im7_colored_reclassified": null, "any_reclassifications": false, "im0_colored_src": "ims/im0_colored.png", "im0_colored_y": 387, "im0_colored_x": 520, "im3_colored_reclassified": false, "num_ambiguous_placements": 0, "im1_reclassified": null, "im2_reclassified": null, "im0_region": null, "im2_region": null, "im2_x": null, "im2_y": null, "im5_y": null, "im5_x": null, "im4_src": null, "rt": 2994, "im7_region": null, "im0_y": null, "im5_colored_reclassified": false, "im6_colored_reclassified": false, "im6_x": null, "im6_y": null, "im3_colored_src": "ims/im3_colored.png", "im0_colored_region": "blue", "im2_colored_reclassified": false, "im1_src": null, "im4_colored_y": 252, "im4_colored_x": 134, "im2_colored_y": 697, "im2_colored_x": 17, "trial": 7, "im5_colored_region": "pink", "im5_reclassified": null, "im4_x": null, "im6_colored_src": "ims/im6_colored.png", "im6_colored_y": 569, "im6_colored_x": 423, "im0_colored_reclassified": false, "im2_src": null, "im4_colored_reclassified": false, "im5_colored_src": "ims/im5_colored.png", "im2_colored_region": "pink", "im1_colored_reclassified": false, "im3_src": null, "im7_colored_src": "ims/im7_colored.png", "im6_colored_region": "blue", "im5_colored_x": 246, "im5_colored_y": 636, "im1_colored_x": 191, "reinforcement": "negative", "im1_colored_y": 324, "im6_region": null, "im1_colored_src": "ims/im1_colored.png", "im0_src": null, "example_true_category": "blue", "im7_colored_region": "blue", "im3_colored_region": "blue", "im5_src": null, "im2_colored_src": "ims/im2_colored.png", "total_reclassifications": 0, "im3_reclassified": null, "im0_reclassified": null, "im0_x": null, "im1_colored_region": "pink", "im6_src": null, "im4_region": null}], "ProblemReport": {"rt": 3589, "trial_type": "survey-text", "responses": {"Q0": "no"}, "internal_node_id": "0.0-3.0", "time_elapsed": 68679, "trial_index": 3}}