{"HITInfo": {"Status": ["Approved"], "AcceptTime": ["Sun Dec 03 17:59:24 PST 2017"], "HitId": ["3W3RSPVVGSR0H22KGKFHFSQID3PLUG"], "SubmitTime": ["Sun Dec 03 18:21:57 PST 2017"], "AssignmentId": ["35K3O9HUABD0FYTVUC2F5HVKZJSEFU"], "WorkerId": ["B5"], "Configs": {"sortAreaHeight": 529.2, "stagingAreaHeight": 105.84, "stimHeight": 44.56421052631579, "stimWidth": 69.52016842105263, "innerWidth": 1229, "sortAreaWidth": 491.6, "innerHeight": 588, "categoryBoxHeights": 423.36, "categoryBoxWidths": 245.8}, "HitTitle": ["Categorization study"]}, "Demographics": {"Gender": "Male", "Age": "30-49 years old", "Education": "college graduate"}, "Data": [{"im7_reclassified": null, "im3_y": 5, "im3_x": 250.145, "im7_colored_x": null, "im7_colored_y": null, "im7_src": "ims/im7.png", "im4_reclassified": null, "im1_y": 5, "im1_x": 93.7246, "im1_region": "staging", "im3_region": "staging", "im5_region": "staging", "im3_colored_x": null, "im3_colored_y": null, "im7_y": 59.5642, "im7_x": 93.7246, "im6_reclassified": null, "im4_y": 59.5642, "im4_colored_src": null, "im4_colored_region": null, "im7_colored_reclassified": null, "any_reclassifications": null, "im0_colored_src": null, "im0_colored_y": null, "im0_colored_x": null, "im3_colored_reclassified": null, "num_ambiguous_placements": 0, "im1_reclassified": null, "im2_reclassified": null, "im0_region": "staging", "im2_region": "staging", "im2_x": 171.935, "im2_y": 5, "im5_y": 59.5642, "im5_x": 171.935, "im4_src": "ims/im4.png", "rt": null, "im0_x": 328.355, "im0_y": 5, "im5_colored_reclassified": null, "im6_colored_reclassified": null, "im6_x": 250.145, "im6_y": 59.5642, "im3_colored_src": null, "im0_colored_region": null, "im2_colored_reclassified": null, "im1_src": "ims/im1.png", "im4_colored_y": null, "im4_colored_x": null, "im2_colored_y": null, "im2_colored_x": null, "trial": "starting_config", "im5_colored_region": null, "im5_reclassified": null, "im4_x": 328.355, "im5_src": "ims/im5.png", "im6_colored_y": null, "im6_colored_x": null, "im0_colored_reclassified": null, "im2_src": "ims/im2.png", "im4_colored_reclassified": null, "im5_colored_src": null, "im2_colored_region": null, "im1_colored_reclassified": null, "im3_src": "ims/im3.png", "im7_colored_src": null, "im6_colored_region": null, "im5_colored_x": null, "im5_colored_y": null, "im1_colored_x": null, "reinforcement": null, "im1_colored_y": null, "im6_region": "staging", "im1_colored_src": null, "im0_src": "ims/im0.png", "example_true_category": null, "im7_colored_region": null, "im3_colored_region": null, "im2_colored_src": null, "total_reclassifications": null, "im3_reclassified": null, "im0_reclassified": null, "im7_region": "staging", "im6_colored_src": null, "im1_colored_region": null, "im6_src": "ims/im6.png", "im4_region": "staging"}, {"im7_reclassified": true, "im3_y": 249, "im3_x": 120, "im7_colored_x": null, "im7_colored_y": null, "im7_src": "ims/im7.png", "im4_reclassified": true, "im1_y": 237, "im1_x": 64, "im1_region": "pink", "im3_region": "pink", "im5_region": "pink", "im3_colored_x": null, "im3_colored_y": null, "im7_y": 157, "im7_x": 93, "im6_reclassified": true, "im4_y": 214, "im4_colored_src": null, "im4_colored_region": null, "im7_colored_reclassified": null, "any_reclassifications": true, "im0_colored_src": null, "im0_colored_y": null, "im0_colored_x": null, "im3_colored_reclassified": null, "num_ambiguous_placements": 0, "im1_reclassified": true, "im2_reclassified": true, "im0_region": "blue", "im2_region": "blue", "im2_x": 312, "im2_y": 267, "im5_y": 174, "im5_x": 150, "im4_src": "ims/im4.png", "rt": 10497, "im0_x": 350, "im0_y": 189, "im5_colored_reclassified": null, "im6_colored_reclassified": null, "im6_x": 272, "im6_y": 176, "im3_colored_src": null, "im0_colored_region": null, "im2_colored_reclassified": null, "im1_src": "ims/im1.png", "im4_colored_y": null, "im4_colored_x": null, "im2_colored_y": null, "im2_colored_x": null, "trial": "initial_classification", "im5_colored_region": null, "im5_reclassified": true, "im4_x": 344, "im5_src": "ims/im5.png", "im6_colored_y": null, "im6_colored_x": null, "im0_colored_reclassified": null, "im2_src": "ims/im2.png", "im4_colored_reclassified": null, "im5_colored_src": null, "im2_colored_region": null, "im1_colored_reclassified": null, "im3_src": "ims/im3.png", "im7_colored_src": null, "im6_colored_region": null, "im5_colored_x": null, "im5_colored_y": null, "im1_colored_x": null, "reinforcement": null, "im1_colored_y": null, "im6_region": "blue", "im1_colored_src": null, "im0_src": "ims/im0.png", "example_true_category": null, "im7_colored_region": null, "im3_colored_region": null, "im2_colored_src": null, "total_reclassifications": 8, "im3_reclassified": true, "im0_reclassified": true, "im7_region": "pink", "im6_colored_src": null, "im1_colored_region": null, "im6_src": "ims/im6.png", "im4_region": "blue"}, {"im7_reclassified": false, "im3_y": 249, "im3_x": 120, "im7_colored_x": null, "im7_colored_y": null, "im7_src": "ims/im7.png", "im4_reclassified": false, "im1_y": 237, "im1_x": 64, "im1_region": "pink", "im3_region": "pink", "im5_region": "pink", "im3_colored_x": null, "im3_colored_y": null, "im7_y": 157, "im7_x": 93, "im6_reclassified": false, "im4_y": 214, "im4_colored_src": null, "im4_colored_region": null, "im7_colored_reclassified": null, "any_reclassifications": false, "im0_colored_src": "ims/im0_colored.png", "im0_colored_y": 0, "im0_colored_x": 211.04, "im3_colored_reclassified": null, "num_ambiguous_placements": 0, "im1_reclassified": false, "im2_reclassified": false, "im0_region": null, "im2_region": "blue", "im2_x": 312, "im2_y": 267, "im5_y": 174, "im5_x": 150, "im4_src": "ims/im4.png", "rt": 7396, "im7_region": "pink", "im0_y": null, "im5_colored_reclassified": null, "im6_colored_reclassified": null, "im6_x": 272, "im6_y": 176, "im3_colored_src": null, "im0_colored_region": "staging", "im2_colored_reclassified": null, "im1_src": "ims/im1.png", "im4_colored_y": null, "im4_colored_x": null, "im2_colored_y": null, "im2_colored_x": null, "trial": 0, "im5_colored_region": null, "im5_reclassified": false, "im4_x": 344, "im5_src": "ims/im5.png", "im6_colored_y": null, "im6_colored_x": null, "im0_colored_reclassified": null, "im2_src": "ims/im2.png", "im4_colored_reclassified": null, "im5_colored_src": null, "im2_colored_region": null, "im1_colored_reclassified": null, "im3_src": "ims/im3.png", "im7_colored_src": null, "im6_colored_region": null, "im5_colored_x": null, "im5_colored_y": null, "im1_colored_x": null, "reinforcement": "positive", "im1_colored_y": null, "im6_region": "blue", "im1_colored_src": null, "im0_src": null, "example_true_category": "blue", "im7_colored_region": null, "im3_colored_region": null, "im2_colored_src": null, "total_reclassifications": 0, "im3_reclassified": false, "im0_reclassified": null, "im0_x": null, "im6_colored_src": null, "im1_colored_region": null, "im6_src": "ims/im6.png", "im4_region": "blue"}, {"im7_reclassified": false, "im3_y": 249, "im3_x": 120, "im7_colored_x": null, "im7_colored_y": null, "im7_src": "ims/im7.png", "im4_reclassified": false, "im1_y": null, "im1_x": null, "im1_region": null, "im3_region": "pink", "im5_region": "pink", "im3_colored_x": null, "im3_colored_y": null, "im7_y": 157, "im7_x": 93, "im6_reclassified": false, "im4_y": 214, "im4_colored_src": null, "im4_colored_region": null, "im7_colored_reclassified": null, "any_reclassifications": false, "im0_colored_src": "ims/im0_colored.png", "im0_colored_y": 0, "im0_colored_x": 211.04, "im3_colored_reclassified": null, "num_ambiguous_placements": 0, "im1_reclassified": null, "im2_reclassified": false, "im0_region": null, "im2_region": "blue", "im2_x": 312, "im2_y": 267, "im5_y": 174, "im5_x": 150, "im4_src": "ims/im4.png", "rt": 2802, "im7_region": "pink", "im0_y": null, "im5_colored_reclassified": null, "im6_colored_reclassified": null, "im6_x": 272, "im6_y": 176, "im3_colored_src": null, "im0_colored_region": "staging", "im2_colored_reclassified": null, "im1_src": null, "im4_colored_y": null, "im4_colored_x": null, "im2_colored_y": null, "im2_colored_x": null, "trial": 1, "im5_colored_region": null, "im5_reclassified": false, "im4_x": 344, "im5_src": "ims/im5.png", "im6_colored_y": null, "im6_colored_x": null, "im0_colored_reclassified": false, "im2_src": "ims/im2.png", "im4_colored_reclassified": null, "im5_colored_src": null, "im2_colored_region": null, "im1_colored_reclassified": null, "im3_src": "ims/im3.png", "im7_colored_src": null, "im6_colored_region": null, "im5_colored_x": null, "im5_colored_y": null, "im1_colored_x": 64, "reinforcement": "positive", "im1_colored_y": 237, "im6_region": "blue", "im1_colored_src": "ims/im1_colored.png", "im0_src": null, "example_true_category": "pink", "im7_colored_region": null, "im3_colored_region": null, "im2_colored_src": null, "total_reclassifications": 0, "im3_reclassified": false, "im0_reclassified": null, "im0_x": null, "im6_colored_src": null, "im1_colored_region": "pink", "im6_src": "ims/im6.png", "im4_region": "blue"}, {"im7_reclassified": false, "im3_y": 249, "im3_x": 120, "im7_colored_x": null, "im7_colored_y": null, "im7_src": "ims/im7.png", "im4_reclassified": false, "im1_y": null, "im1_x": null, "im1_region": null, "im3_region": "pink", "im5_region": "pink", "im3_colored_x": null, "im3_colored_y": null, "im7_y": 157, "im7_x": 93, "im6_reclassified": false, "im4_y": 214, "im4_colored_src": null, "im4_colored_region": null, "im7_colored_reclassified": null, "any_reclassifications": false, "im0_colored_src": "ims/im0_colored.png", "im0_colored_y": 0, "im0_colored_x": 211.04, "im3_colored_reclassified": null, "num_ambiguous_placements": 0, "im1_reclassified": null, "im2_reclassified": null, "im0_region": null, "im2_region": null, "im2_x": null, "im2_y": null, "im5_y": 174, "im5_x": 150, "im4_src": "ims/im4.png", "rt": 1043, "im7_region": "pink", "im0_y": null, "im5_colored_reclassified": null, "im6_colored_reclassified": null, "im6_x": 272, "im6_y": 176, "im3_colored_src": null, "im0_colored_region": "staging", "im2_colored_reclassified": null, "im1_src": null, "im4_colored_y": null, "im4_colored_x": null, "im2_colored_y": 267, "im2_colored_x": 312, "trial": 2, "im5_colored_region": null, "im5_reclassified": false, "im4_x": 344, "im5_src": "ims/im5.png", "im6_colored_y": null, "im6_colored_x": null, "im0_colored_reclassified": false, "im2_src": null, "im4_colored_reclassified": null, "im5_colored_src": null, "im2_colored_region": "blue", "im1_colored_reclassified": false, "im3_src": "ims/im3.png", "im7_colored_src": null, "im6_colored_region": null, "im5_colored_x": null, "im5_colored_y": null, "im1_colored_x": 64, "reinforcement": "negative", "im1_colored_y": 237, "im6_region": "blue", "im1_colored_src": "ims/im1_colored.png", "im0_src": null, "example_true_category": "pink", "im7_colored_region": null, "im3_colored_region": null, "im2_colored_src": "ims/im2_colored.png", "total_reclassifications": 0, "im3_reclassified": false, "im0_reclassified": null, "im0_x": null, "im6_colored_src": null, "im1_colored_region": "pink", "im6_src": "ims/im6.png", "im4_region": "blue"}, {"im7_reclassified": false, "im3_y": null, "im3_x": null, "im7_colored_x": null, "im7_colored_y": null, "im7_src": "ims/im7.png", "im4_reclassified": false, "im1_y": null, "im1_x": null, "im1_region": null, "im3_region": null, "im5_region": "pink", "im3_colored_x": 120, "im3_colored_y": 249, "im7_y": 157, "im7_x": 93, "im6_reclassified": false, "im5_src": "ims/im5.png", "im4_colored_src": null, "im4_colored_region": null, "im7_colored_reclassified": null, "any_reclassifications": false, "im0_colored_src": "ims/im0_colored.png", "im0_colored_y": 0, "im0_colored_x": 211.04, "im3_colored_reclassified": null, "num_ambiguous_placements": 0, "im1_reclassified": null, "im2_reclassified": null, "im0_region": null, "im2_region": null, "im2_x": null, "im2_y": null, "im5_y": 174, "im5_x": 150, "im4_src": "ims/im4.png", "rt": 708, "im7_region": "pink", "im0_y": null, "im5_colored_reclassified": null, "im6_colored_reclassified": null, "im6_x": 272, "im6_y": 176, "im3_colored_src": "ims/im3_colored.png", "im0_colored_region": "staging", "im2_colored_reclassified": false, "im1_src": null, "im4_colored_y": null, "im4_colored_x": null, "im2_colored_y": 267, "im2_colored_x": 312, "trial": 3, "im5_colored_region": null, "im5_reclassified": false, "im4_x": 344, "im4_y": 214, "im6_colored_y": null, "im6_colored_x": null, "im0_colored_reclassified": false, "im2_src": null, "im4_colored_reclassified": null, "im5_colored_src": null, "im2_colored_region": "blue", "im1_colored_reclassified": false, "im3_src": null, "im7_colored_src": null, "im6_colored_region": null, "im5_colored_x": null, "im5_colored_y": null, "im1_colored_x": 64, "reinforcement": "negative", "im1_colored_y": 237, "im6_region": "blue", "im1_colored_src": "ims/im1_colored.png", "im0_src": null, "example_true_category": "blue", "im7_colored_region": null, "im3_colored_region": "pink", "im2_colored_src": "ims/im2_colored.png", "total_reclassifications": 0, "im3_reclassified": null, "im0_reclassified": null, "im0_x": null, "im6_colored_src": null, "im1_colored_region": "pink", "im6_src": "ims/im6.png", "im4_region": "blue"}, {"im7_reclassified": false, "im3_y": null, "im3_x": null, "im7_colored_x": null, "im7_colored_y": null, "im7_src": "ims/im7.png", "im4_reclassified": null, "im1_y": null, "im1_x": null, "im1_region": null, "im3_region": null, "im5_region": "pink", "im3_colored_x": 120, "im3_colored_y": 249, "im7_y": 157, "im7_x": 93, "im6_reclassified": false, "im4_y": null, "im4_colored_src": "ims/im4_colored.png", "im4_colored_region": "blue", "im7_colored_reclassified": null, "any_reclassifications": false, "im0_colored_src": "ims/im0_colored.png", "im0_colored_y": 0, "im0_colored_x": 211.04, "im3_colored_reclassified": false, "num_ambiguous_placements": 0, "im1_reclassified": null, "im2_reclassified": null, "im0_region": null, "im2_region": null, "im2_x": null, "im2_y": null, "im5_y": 174, "im5_x": 150, "im4_src": null, "rt": 308, "im7_region": "pink", "im0_y": null, "im5_colored_reclassified": null, "im6_colored_reclassified": null, "im6_x": 272, "im6_y": 176, "im3_colored_src": "ims/im3_colored.png", "im0_colored_region": "staging", "im2_colored_reclassified": false, "im1_src": null, "im4_colored_y": 214, "im4_colored_x": 344, "im2_colored_y": 267, "im2_colored_x": 312, "trial": 4, "im5_colored_region": null, "im5_reclassified": false, "im4_x": null, "im5_src": "ims/im5.png", "im6_colored_y": null, "im6_colored_x": null, "im0_colored_reclassified": false, "im2_src": null, "im4_colored_reclassified": null, "im5_colored_src": null, "im2_colored_region": "blue", "im1_colored_reclassified": false, "im3_src": null, "im7_colored_src": null, "im6_colored_region": null, "im5_colored_x": null, "im5_colored_y": null, "im1_colored_x": 64, "reinforcement": "negative", "im1_colored_y": 237, "im6_region": "blue", "im1_colored_src": "ims/im1_colored.png", "im0_src": null, "example_true_category": "pink", "im7_colored_region": null, "im3_colored_region": "pink", "im2_colored_src": "ims/im2_colored.png", "total_reclassifications": 0, "im3_reclassified": null, "im0_reclassified": null, "im0_x": null, "im6_colored_src": null, "im1_colored_region": "pink", "im6_src": "ims/im6.png", "im4_region": null}, {"im7_reclassified": false, "im3_y": null, "im3_x": null, "im7_colored_x": null, "im7_colored_y": null, "im7_src": "ims/im7.png", "im4_reclassified": null, "im1_y": null, "im1_x": null, "im1_region": null, "im3_region": null, "im5_region": null, "im3_colored_x": 120, "im3_colored_y": 249, "im7_y": 157, "im7_x": 93, "im6_reclassified": false, "im5_src": null, "im4_colored_src": "ims/im4_colored.png", "im4_colored_region": "blue", "im7_colored_reclassified": null, "any_reclassifications": false, "im0_colored_src": "ims/im0_colored.png", "im0_colored_y": 0, "im0_colored_x": 211.04, "im3_colored_reclassified": false, "num_ambiguous_placements": 0, "im1_reclassified": null, "im2_reclassified": null, "im0_region": null, "im2_region": null, "im2_x": null, "im2_y": null, "im5_y": null, "im5_x": null, "im4_src": null, "rt": 252, "im7_region": "pink", "im0_y": null, "im5_colored_reclassified": null, "im6_colored_reclassified": null, "im6_x": 272, "im6_y": 176, "im3_colored_src": "ims/im3_colored.png", "im0_colored_region": "staging", "im2_colored_reclassified": false, "im1_src": null, "im4_colored_y": 214, "im4_colored_x": 344, "im2_colored_y": 267, "im2_colored_x": 312, "trial": 5, "im5_colored_region": "pink", "im5_colored_src": "ims/im5_colored.png", "im4_x": null, "im4_y": null, "im6_colored_y": null, "im6_colored_x": null, "im0_colored_reclassified": false, "im2_src": null, "im4_colored_reclassified": false, "im5_reclassified": null, "im2_colored_region": "blue", "im1_colored_reclassified": false, "im3_src": null, "im7_colored_src": null, "im6_colored_region": null, "im5_colored_x": 150, "im5_colored_y": 174, "im1_colored_x": 64, "reinforcement": "positive", "im1_colored_y": 237, "im6_region": "blue", "im1_colored_src": "ims/im1_colored.png", "im0_src": null, "example_true_category": "pink", "im7_colored_region": null, "im3_colored_region": "pink", "im2_colored_src": "ims/im2_colored.png", "total_reclassifications": 0, "im3_reclassified": null, "im0_reclassified": null, "im0_x": null, "im6_colored_src": null, "im1_colored_region": "pink", "im6_src": "ims/im6.png", "im4_region": null}, {"im7_reclassified": false, "im3_y": null, "im3_x": null, "im7_colored_x": null, "im7_colored_y": null, "im7_src": "ims/im7.png", "im4_reclassified": null, "im1_y": null, "im1_x": null, "im1_region": null, "im3_region": null, "im5_region": null, "im3_colored_x": 120, "im3_colored_y": 249, "im7_y": 157, "im7_x": 93, "im6_reclassified": null, "im4_y": null, "im4_colored_src": "ims/im4_colored.png", "im4_colored_region": "blue", "im7_colored_reclassified": null, "any_reclassifications": false, "im0_colored_src": "ims/im0_colored.png", "im0_colored_y": 0, "im0_colored_x": 211.04, "im3_colored_reclassified": false, "num_ambiguous_placements": 0, "im1_reclassified": null, "im2_reclassified": null, "im0_region": null, "im2_region": null, "im2_x": null, "im2_y": null, "im5_y": null, "im5_x": null, "im4_src": null, "rt": 4780, "im7_region": "pink", "im0_y": null, "im5_colored_reclassified": false, "im6_colored_reclassified": null, "im6_x": null, "im6_y": null, "im3_colored_src": "ims/im3_colored.png", "im0_colored_region": "staging", "im2_colored_reclassified": false, "im1_src": null, "im4_colored_y": 214, "im4_colored_x": 344, "im2_colored_y": 267, "im2_colored_x": 312, "trial": 6, "im5_colored_region": "pink", "im5_reclassified": null, "im4_x": null, "im6_colored_src": "ims/im6_colored.png", "im6_colored_y": 0, "im6_colored_x": 211.04, "im0_colored_reclassified": false, "im2_src": null, "im4_colored_reclassified": false, "im5_colored_src": "ims/im5_colored.png", "im2_colored_region": "blue", "im1_colored_reclassified": false, "im3_src": null, "im7_colored_src": null, "im6_colored_region": "staging", "im5_colored_x": 150, "im5_colored_y": 174, "im1_colored_x": 64, "reinforcement": "positive", "im1_colored_y": 237, "im6_region": null, "im1_colored_src": "ims/im1_colored.png", "im0_src": null, "example_true_category": "blue", "im7_colored_region": null, "im3_colored_region": "pink", "im5_src": null, "im2_colored_src": "ims/im2_colored.png", "total_reclassifications": 0, "im3_reclassified": null, "im0_reclassified": null, "im0_x": null, "im1_colored_region": "pink", "im6_src": null, "im4_region": null}, {"im7_reclassified": null, "im3_y": null, "im3_x": null, "im7_colored_x": 211.04, "im7_colored_y": 0, "im7_src": null, "im4_reclassified": null, "im1_y": null, "im1_x": null, "im1_region": null, "im3_region": null, "im5_region": null, "im3_colored_x": 120, "im3_colored_y": 249, "im7_y": null, "im7_x": null, "im6_reclassified": null, "im4_y": null, "im4_colored_src": "ims/im4_colored.png", "im4_colored_region": "blue", "im7_colored_reclassified": null, "any_reclassifications": false, "im0_colored_src": "ims/im0_colored.png", "im0_colored_y": 0, "im0_colored_x": 211.04, "im3_colored_reclassified": false, "num_ambiguous_placements": 0, "im1_reclassified": null, "im2_reclassified": null, "im0_region": null, "im2_region": null, "im2_x": null, "im2_y": null, "im5_y": null, "im5_x": null, "im4_src": null, "rt": 4763, "im7_region": null, "im0_y": null, "im5_colored_reclassified": false, "im6_colored_reclassified": false, "im6_x": null, "im6_y": null, "im3_colored_src": "ims/im3_colored.png", "im0_colored_region": "staging", "im2_colored_reclassified": false, "im1_src": null, "im4_colored_y": 214, "im4_colored_x": 344, "im2_colored_y": 267, "im2_colored_x": 312, "trial": 7, "im5_colored_region": "pink", "im5_reclassified": null, "im4_x": null, "im6_colored_src": "ims/im6_colored.png", "im6_colored_y": 0, "im6_colored_x": 211.04, "im0_colored_reclassified": false, "im2_src": null, "im4_colored_reclassified": false, "im5_colored_src": "ims/im5_colored.png", "im2_colored_region": "blue", "im1_colored_reclassified": false, "im3_src": null, "im7_colored_src": "ims/im7_colored.png", "im6_colored_region": "staging", "im5_colored_x": 150, "im5_colored_y": 174, "im1_colored_x": 64, "reinforcement": "negative", "im1_colored_y": 237, "im6_region": null, "im1_colored_src": "ims/im1_colored.png", "im0_src": null, "example_true_category": "blue", "im7_colored_region": "staging", "im3_colored_region": "pink", "im5_src": null, "im2_colored_src": "ims/im2_colored.png", "total_reclassifications": 0, "im3_reclassified": null, "im0_reclassified": null, "im0_x": null, "im1_colored_region": "pink", "im6_src": null, "im4_region": null}], "ProblemReport": {"rt": 2771, "trial_type": "survey-text", "responses": {"Q0": "no"}, "internal_node_id": "0.0-3.0", "time_elapsed": 67736, "trial_index": 3}}